LLegOut_X	LLegOut_Y	LLegOut_Z	RLegIn_X	RLegIn_Y	RLegIn_Z	RLegOut_X	RLegOut_Y	RLegOut_Z	LArmIn_X	LArmIn_Y	LArmIn_Z	RArmIn_X	RArmIn_Y	RArmIn_Z	RArmOut_X	RArmOut_Y	RArmOut_Z	LArmOut_X	LArmOut_Y	LArmOut_Z	LLegIn_X	LLegIn_Y	LLegIn_Z	LArm_acc_X	LArm_acc_Y	LArm_acc_Z	RArm_acc_X	RArm_acc_Y	RArm_acc_Z
-354.942	113.487	-149.923	-264.055	111.923	233.669	-179.292	83.141	257.087	-239.009	636.656	-337.103	90.145	591.771	-98.665	118.508	638.672	-0.507	-343.211	684.024	-340.931	-306.18	131.597	-90.582	0.001776	0.006007	0.006831	0.002794	-0.004993	0.009044
-354.935	113.487	-149.943	-264.061	111.945	233.67	-179.296	83.149	257.101	-238.947	636.647	-337.099	90.207	591.848	-98.503	118.503	638.7	-0.503	-343.141	683.986	-340.956	-306.19	131.587	-90.597	0.001872	0.006606	0.001065	0.003013	0.003719	0.002412
-354.927	113.473	-149.923	-264.043	111.947	233.682	-179.282	83.148	257.101	-238.843	636.647	-336.996	90.235	591.88	-98.499	118.49	638.732	-0.498	-343.097	683.973	-341.003	-306.141	131.6	-90.607	-0.001064	0.004532	-0.000408	0.003701	0.001482	0.0068
-354.911	113.461	-149.913	-264.044	111.949	233.678	-179.279	83.14	257.092	-238.783	636.632	-336.958	90.244	591.88	-98.489	118.481	638.772	-0.486	-343.039	683.929	-341.019	-306.156	131.58	-90.59	0.001912	0.008962	-0.001212	0.001488	-0.002957	0.010429
-354.919	113.449	-149.916	-264.03	111.953	233.702	-179.284	83.126	257.084	-238.742	636.602	-336.945	90.269	591.845	-98.547	118.488	638.802	-0.474	-342.999	683.902	-341.04	-306.154	131.591	-90.568	0.007799	0.015574	0.001599	0.001718	-0.003841	0.00612
-354.907	113.449	-149.889	-264.043	111.952	233.703	-179.275	83.12	257.104	-238.691	636.614	-336.937	90.322	591.823	-98.58	118.484	638.846	-0.452	-342.972	683.882	-341.057	-306.144	131.58	-90.523	0.005652	0.020777	0.005862	-0.001732	-0.003293	0.004623
-354.9	113.439	-149.896	-264.034	111.955	233.709	-179.267	83.115	257.095	-238.652	636.612	-336.875	90.277	591.953	-98.476	118.48	638.86	-0.433	-342.964	683.848	-341.071	-306.132	131.61	-90.524	0.001235	0.015607	0.000105	-0.005256	-0.003425	0.005985
-354.889	113.432	-149.87	-264.036	111.965	233.713	-179.254	83.124	257.103	-238.646	636.61	-336.828	90.353	591.969	-98.449	118.479	638.883	-0.444	-342.961	683.839	-341.085	-306.147	131.588	-90.521	0.002706	0.014626	0.002415	-0.002285	-0.007875	0.00965
-354.882	113.439	-149.859	-264.029	111.959	233.72	-179.262	83.114	257.107	-238.669	636.63	-336.808	90.38	591.965	-98.445	118.466	638.938	-0.422	-342.971	683.822	-341.091	-306.176	131.59	-90.519	0.000452	0.007798	0.006267	0.000173	-0.010126	0.005235
-354.883	113.433	-149.871	-264.016	111.959	233.738	-179.258	83.114	257.102	-238.659	636.613	-336.806	90.373	591.973	-98.439	118.454	638.981	-0.395	-342.992	683.828	-341.114	-306.145	131.584	-90.491	-0.003164	0.003833	0.005004	-0.001894	-0.005024	0.007139
-354.861	113.419	-149.854	-264.044	111.968	233.734	-179.257	83.129	257.12	-238.678	636.656	-336.778	90.346	592.044	-98.399	118.453	639.003	-0.388	-343.017	683.832	-341.114	-306.133	131.594	-90.471	-0.00376	0.004989	0.004427	0.000453	-0.004975	0.006233
-354.871	113.421	-149.854	-264.053	111.986	233.739	-179.263	83.104	257.105	-238.732	636.666	-336.83	90.396	592.044	-98.412	118.454	639.058	-0.365	-343.056	683.824	-341.122	-306.164	131.555	-90.467	-0.008022	0.00414	0.006745	0.000774	-0.001319	-0.000545
-354.847	113.422	-149.857	-264.041	111.96	233.747	-179.263	83.101	257.106	-238.764	636.661	-336.839	90.428	592.061	-98.411	118.426	639.082	-0.345	-343.084	683.835	-341.117	-306.149	131.568	-90.453	-0.006494	-0.001189	0.002597	0.002878	0.000229	0.007259
-354.854	113.404	-149.834	-264.044	111.964	233.748	-179.27	83.1	257.096	-238.798	636.666	-336.859	90.424	592.074	-98.393	118.413	639.126	-0.31	-343.12	683.837	-341.099	-306.141	131.562	-90.445	-0.00559	0.000121	0.001268	0.002402	0.000237	0.001278
-354.844	113.415	-149.834	-264.035	111.948	233.744	-179.292	83.091	257.103	-238.832	636.655	-336.846	90.407	592.096	-98.384	118.385	639.133	-0.306	-343.173	683.859	-341.094	-306.143	131.565	-90.435	-0.003126	0.010232	0.00638	0.00312	0.004644	0.004777
-354.844	113.397	-149.823	-264.054	111.953	233.751	-179.286	83.066	257.099	-238.902	636.651	-336.88	90.369	592.101	-98.365	118.384	639.175	-0.298	-343.352	683.948	-340.931	-306.119	131.569	-90.421	-0.005222	0.005848	0.005077	0.001837	-0.001904	0.001732
-354.833	113.385	-149.815	-264.048	111.946	233.764	-179.293	83.071	257.09	-238.919	636.654	-336.866	90.403	592.11	-98.348	118.355	639.205	-0.284	-343.389	683.948	-340.961	-306.127	131.553	-90.417	-0.001374	0.008619	0.006668	-0.002319	-0.0048	-0.002873
-354.813	113.399	-149.815	-264.064	111.967	233.748	-179.3	83.057	257.094	-238.957	636.646	-336.882	90.373	592.142	-98.357	118.321	639.234	-0.291	-343.406	683.944	-340.957	-306.149	131.552	-90.37	-0.004859	0.007037	0.003914	-0.005279	-0.003233	0.001917
-354.821	113.387	-149.797	-264.053	111.969	233.744	-179.304	83.054	257.109	-238.966	636.648	-336.88	90.357	592.119	-98.346	118.299	639.253	-0.284	-343.409	683.883	-340.995	-306.122	131.576	-90.356	0.004031	0.005193	0.003462	0.002093	-0.002363	0.001094
-354.811	113.398	-149.794	-264.058	111.96	233.783	-179.31	83.034	257.076	-238.969	636.625	-336.9	90.372	592.125	-98.366	118.271	639.254	-0.303	-343.419	683.86	-341.036	-306.115	131.566	-90.367	-0.002339	0.002846	-0.003645	0.004286	0.005044	0.004477
-354.816	113.393	-149.782	-264.037	111.944	233.763	-179.298	83.046	257.103	-239.008	636.587	-336.923	90.328	592.159	-98.39	118.276	639.253	-0.298	-343.422	683.832	-341.043	-306.135	131.561	-90.31	-0.004485	-0.002343	0.001649	0.006587	0.005835	0.003601
-354.814	113.394	-149.769	-264.036	111.927	233.77	-179.281	83.054	257.091	-239.01	636.562	-336.907	90.305	592.132	-98.391	118.252	639.226	-0.326	-343.412	683.803	-341.082	-306.133	131.557	-90.328	-0.000687	-0.005525	-0.003939	0.003695	0.010234	0.006279
-354.814	113.39	-149.768	-264.067	111.964	233.75	-179.298	83.06	257.098	-239.006	636.542	-336.922	90.293	592.153	-98.442	118.246	639.208	-0.375	-343.381	683.756	-341.11	-306.154	131.581	-90.302	0.003847	-0.005707	-0.002296	0.003917	0.002912	0.001152
-354.788	113.384	-149.762	-264.049	111.951	233.77	-179.313	83.059	257.099	-238.997	636.515	-336.906	90.279	592.126	-98.471	118.228	639.18	-0.409	-343.349	683.742	-341.142	-306.122	131.556	-90.288	-0.003258	-0.004225	-0.000768	-0.002493	0.005046	0.000175
-354.791	113.378	-149.752	-264.071	111.97	233.763	-179.307	83.046	257.086	-238.974	636.496	-336.905	90.208	592.157	-98.487	118.244	639.177	-0.431	-343.311	683.699	-341.183	-306.118	131.548	-90.297	0.001966	-0.008095	-0.001978	-0.003805	0.003554	-0.001391
-354.789	113.368	-149.764	-264.067	111.937	233.748	-179.307	83.058	257.1	-238.939	636.506	-336.906	90.169	592.157	-98.513	118.233	639.167	-0.467	-343.269	683.681	-341.221	-306.153	131.559	-90.331	-0.005769	-0.000762	0.000205	-0.000843	0.000705	-0.000739
-354.786	113.347	-149.765	-264.063	111.944	233.777	-179.297	83.075	257.08	-238.863	636.536	-336.833	90.121	592.155	-98.55	118.24	639.101	-0.52	-343.242	683.669	-341.287	-306.142	131.549	-90.337	-0.00785	-0.002304	0.001064	0.002016	0.00737	0.003464
-354.78	113.35	-149.762	-264.064	111.953	233.763	-179.303	83.068	257.094	-238.846	636.526	-336.789	90.102	592.131	-98.595	118.252	639.079	-0.547	-343.19	683.633	-341.347	-306.118	131.542	-90.306	-0.0055	-0.001722	0.000479	-0.000902	0.008922	0.0061
-354.777	113.349	-149.773	-264.058	111.927	233.777	-179.314	83.073	257.082	-238.817	636.495	-336.77	90.063	592.021	-98.72	118.239	639.037	-0.616	-343.153	683.594	-341.39	-306.125	131.559	-90.299	-0.003819	0.00181	0.00205	0.005777	0.016204	0.003245
-354.775	113.342	-149.756	-264.074	111.94	233.76	-179.308	83.068	257.081	-238.748	636.488	-336.748	89.998	592.07	-98.763	118.246	639.035	-0.633	-343.129	683.56	-341.422	-306.12	131.57	-90.299	0.001329	-0.001285	0.003684	0.002873	0.013981	0.005347
-354.77	113.345	-149.751	-264.099	111.942	233.755	-179.32	83.06	257.088	-238.701	636.489	-336.72	89.91	592.079	-98.793	118.223	639.002	-0.7	-343.092	683.533	-341.464	-306.128	131.549	-90.289	0.003656	0.000814	0.001565	-0.000746	0.01315	0.007492
-354.767	113.336	-149.749	-264.095	111.924	233.763	-179.322	83.07	257.094	-238.657	636.449	-336.704	89.828	592.095	-98.849	118.211	638.984	-0.727	-343.067	683.511	-341.491	-306.119	131.563	-90.278	-0.00282	0.000926	0.002301	-0.00057	0.005017	0.00324
-354.747	113.328	-149.732	-264.099	111.92	233.765	-179.313	83.075	257.081	-238.596	636.425	-336.651	89.775	592.079	-98.919	118.191	638.956	-0.77	-342.993	683.471	-341.515	-306.152	131.549	-90.246	-0.000514	0.003064	0.00162	-0.00631	0.004151	0.002473
-354.752	113.338	-149.705	-264.103	111.934	233.755	-179.322	83.07	257.101	-238.576	636.377	-336.669	89.656	592.121	-98.953	118.18	638.946	-0.8	-342.985	683.425	-341.548	-306.162	131.551	-90.268	0.003893	0.000825	0.001722	-0.000537	0.0048	0.007017
-354.75	113.323	-149.721	-264.115	111.932	233.759	-179.315	83.087	257.104	-238.533	636.334	-336.633	89.584	592.139	-98.98	118.158	638.895	-0.843	-342.923	683.369	-341.598	-306.122	131.575	-90.218	-0.002522	-0.000482	0.000322	0.005407	0.007602	0.003609
-354.756	113.322	-149.706	-264.13	111.947	233.756	-179.334	83.081	257.078	-238.507	636.312	-336.581	89.522	592.126	-99.047	118.141	638.863	-0.876	-342.893	683.322	-341.61	-306.128	131.553	-90.195	0.002108	0.008182	-0.001134	0.000387	0.008215	0.002126
-354.734	113.32	-149.709	-264.11	111.938	233.752	-179.342	83.079	257.1	-238.442	636.258	-336.533	89.532	592.249	-98.874	118.124	638.845	-0.919	-342.86	683.276	-341.646	-306.122	131.564	-90.202	-0.002293	0.002462	-0.001797	-0.003116	0.003006	-0.001491
-354.734	113.319	-149.705	-264.115	111.922	233.775	-179.335	83.097	257.107	-238.414	636.201	-336.445	89.527	592.129	-99.004	118.117	638.823	-0.952	-342.818	683.212	-341.678	-306.15	131.566	-90.227	-0.001622	-0.00406	-0.000963	0.000499	-0.002894	0.000165
-354.724	113.317	-149.699	-264.123	111.928	233.758	-179.353	83.086	257.09	-238.368	636.157	-336.409	89.457	592.226	-98.938	118.111	638.779	-0.97	-342.785	683.152	-341.696	-306.139	131.572	-90.193	-0.002186	0.000328	-0.003156	0.000586	-0.002237	-0.002678
-354.742	113.316	-149.689	-264.126	111.949	233.766	-179.346	83.101	257.103	-238.484	636.225	-336.295	89.48	592.125	-99.057	118.119	638.76	-1.004	-342.73	683.103	-341.735	-306.134	131.568	-90.193	-0.002114	0.001871	0.00342	0.005743	0.002079	-0.004701
-354.739	113.321	-149.683	-264.129	111.935	233.764	-179.339	83.091	257.101	-238.429	636.188	-336.248	89.433	592.083	-99.091	118.107	638.745	-1.029	-342.674	683.066	-341.749	-306.154	131.563	-90.21	-0.007046	0.007069	0.004836	0.00413	0.00422	0.001859
-354.726	113.313	-149.687	-264.12	111.94	233.754	-179.352	83.083	257.095	-238.392	636.17	-336.196	89.394	592.065	-99.158	118.123	638.713	-1.081	-342.629	683.024	-341.785	-306.147	131.572	-90.161	-0.003978	0.007698	0.004962	0.004217	0.00121	-0.002347
-354.733	113.315	-149.678	-264.126	111.942	233.757	-179.357	83.111	257.083	-238.337	636.12	-336.184	89.379	592.035	-99.187	118.134	638.704	-1.106	-342.6	682.987	-341.817	-306.139	131.57	-90.179	0.001317	0.011196	0.002871	0.003399	0.000389	0.000693
-354.738	113.313	-149.693	-264.117	111.926	233.758	-179.35	83.098	257.1	-238.298	636.137	-336.143	89.315	592.082	-99.252	118.157	638.677	-1.167	-342.552	682.951	-341.839	-306.138	131.573	-90.18	0.008711	0.011096	0.000797	0.001869	0.001754	0.002977
-354.735	113.303	-149.689	-264.129	111.935	233.749	-179.341	83.098	257.102	-238.258	636.121	-336.115	89.329	592.022	-99.33	118.205	638.651	-1.205	-342.518	682.924	-341.854	-306.17	131.565	-90.196	0.008941	0.019897	-0.002198	0.004111	-0.000556	0.000302
-354.732	113.315	-149.683	-264.13	111.954	233.756	-179.348	83.086	257.109	-238.233	636.086	-336.119	89.241	592.035	-99.398	118.199	638.623	-1.276	-342.475	682.89	-341.872	-306.122	131.564	-90.163	0.009064	0.025057	-0.006645	-0.000464	-0.003516	0.007589
-354.74	113.303	-149.693	-264.128	111.947	233.758	-179.34	83.11	257.098	-238.184	636.077	-336.031	89.226	592.008	-99.449	118.261	638.601	-1.293	-342.478	682.872	-341.885	-306.139	131.576	-90.163	0.011227	0.025059	-0.003727	-0.001238	0.000798	0.007673
-354.74	113.295	-149.674	-264.111	111.945	233.761	-179.336	83.102	257.089	-238.151	636.063	-336.056	89.225	591.963	-99.512	118.267	638.58	-1.345	-342.435	682.836	-341.908	-306.133	131.554	-90.184	0.014239	0.027697	-0.005096	0.00038	0.002162	0.001264
-354.722	113.296	-149.677	-264.12	111.915	233.741	-179.339	83.095	257.086	-238.136	636.043	-336.049	89.164	591.972	-99.558	118.297	638.57	-1.394	-342.42	682.822	-341.921	-306.134	131.564	-90.175	0.009059	0.023059	0.003812	-0.00328	-0.000777	0.002662
-354.714	113.301	-149.687	-264.105	111.935	233.75	-179.329	83.085	257.08	-238.091	636.039	-336.016	89.101	591.967	-99.573	118.321	638.549	-1.456	-342.393	682.794	-341.939	-306.124	131.568	-90.167	0.003169	0.014532	0.002644	-0.008338	0.001383	0.001807
-354.711	113.281	-149.677	-264.102	111.939	233.753	-179.333	83.073	257.085	-238.069	636.005	-336.009	89.061	591.968	-99.601	118.342	638.523	-1.505	-342.394	682.798	-341.965	-306.113	131.56	-90.176	0.001594	0.002211	0.003045	-0.009042	-7.4e-05	0.00177
-354.699	113.279	-149.672	-264.092	111.933	233.751	-179.334	83.053	257.075	-238.037	635.979	-336.011	89.057	591.944	-99.661	118.369	638.504	-1.55	-342.353	682.754	-341.981	-306.134	131.551	-90.198	0.002927	-0.010222	0.000556	-0.006212	0.003572	0.006864
-354.706	113.282	-149.677	-264.093	111.94	233.754	-179.307	83.088	257.083	-238.026	635.945	-336.036	88.978	591.966	-99.71	118.398	638.474	-1.612	-342.34	682.745	-341.991	-306.127	131.532	-90.198	-0.001613	-0.019442	0.003717	-0.0053	0.007145	0.00249
-354.712	113.281	-149.686	-264.095	111.941	233.749	-179.312	83.093	257.092	-237.983	635.937	-336.03	88.965	591.941	-99.767	118.431	638.441	-1.68	-342.311	682.725	-341.992	-306.111	131.546	-90.183	0.000419	-0.028647	0.002504	-0.000978	0.000566	0.005545
-354.705	113.288	-149.672	-264.083	111.945	233.742	-179.323	83.07	257.073	-237.981	635.89	-336.026	88.991	591.833	-99.831	118.479	638.406	-1.751	-342.452	682.823	-341.831	-306.106	131.547	-90.172	-0.004725	-0.027303	0.011251	-0.000874	0.004831	0.002705
-354.692	113.27	-149.668	-264.09	111.957	233.744	-179.301	83.092	257.072	-237.957	635.873	-336.046	88.957	591.86	-99.859	118.521	638.389	-1.808	-342.419	682.794	-341.847	-306.109	131.543	-90.176	-0.011944	-0.025986	0.004701	-0.002387	0.001136	0.006362
-354.707	113.29	-149.694	-264.061	111.944	233.75	-179.303	83.095	257.082	-237.97	635.861	-336.061	88.957	591.871	-99.927	118.59	638.375	-1.897	-342.406	682.786	-341.864	-306.132	131.525	-90.184	-0.007611	-0.029057	0.003339	0.003604	0.000328	0.001461
-354.695	113.268	-149.685	-264.094	111.951	233.729	-179.3	83.083	257.079	-237.942	635.853	-336.002	89.011	591.86	-100.04	118.67	638.385	-1.987	-342.388	682.775	-341.857	-306.104	131.548	-90.16	-0.009114	-0.026765	0.009077	0.001493	0.000996	-0.000726
-354.703	113.282	-149.679	-264.079	111.959	233.737	-179.302	83.086	257.077	-237.928	635.83	-336.032	89.065	591.871	-100.1	118.781	638.417	-2.105	-342.374	682.77	-341.872	-306.097	131.549	-90.162	-0.008385	-0.023801	0.009728	-9.6e-05	-0.001189	0.005065
-354.698	113.278	-149.675	-264.081	111.948	233.74	-179.288	83.104	257.082	-237.888	635.835	-335.956	89.245	591.836	-100.2	118.94	638.475	-2.208	-342.326	682.726	-341.892	-306.105	131.531	-90.164	-0.009142	-0.024469	0.007509	0.003035	0.000972	-0.002176
-354.698	113.284	-149.687	-264.059	111.948	233.752	-179.299	83.094	257.095	-237.874	635.826	-335.931	89.361	591.868	-100.292	119.137	638.53	-2.341	-342.291	682.707	-341.92	-306.104	131.519	-90.219	-0.009228	-0.024346	0.01034	-0.002218	0.005367	0.004197
-354.71	113.272	-149.678	-264.078	111.966	233.739	-179.304	83.09	257.082	-237.85	635.8	-335.9	89.457	591.961	-100.368	119.381	638.623	-2.448	-342.25	682.673	-341.95	-306.118	131.536	-90.193	-0.006919	-0.014055	0.011628	0.002819	0.008271	0.005802
-354.701	113.267	-149.693	-264.06	111.958	233.752	-179.305	83.108	257.096	-237.828	635.806	-335.912	89.533	592.057	-100.413	119.665	638.732	-2.572	-342.206	682.627	-341.99	-306.119	131.515	-90.197	-0.007577	-0.006695	0.011483	0.002869	0.006028	0.001584
-354.716	113.257	-149.7	-264.066	111.968	233.759	-179.298	83.109	257.094	-237.795	635.777	-335.886	89.67	592.224	-100.474	119.97	638.915	-2.697	-342.166	682.618	-342.022	-306.101	131.498	-90.23	-0.00621	-0.00734	0.01288	-0.001778	0.003858	0.009578
-354.711	113.266	-149.698	-264.058	111.984	233.757	-179.309	83.114	257.093	-237.758	635.775	-335.846	89.945	592.346	-100.58	120.152	638.964	-3.149	-342.103	682.592	-342.059	-306.115	131.512	-90.207	-0.002522	-0.00302	0.006978	-0.003027	0.004522	-0.001233
-354.716	113.262	-149.71	-264.042	111.992	233.754	-179.293	83.13	257.094	-237.699	635.785	-335.815	90.326	592.673	-100.637	120.598	639.314	-3.363	-342.018	682.581	-342.108	-306.114	131.507	-90.233	-0.001832	-0.001521	0.00471	-0.01996	0.003105	0.004198
-354.713	113.258	-149.714	-264.063	112.012	233.752	-179.291	83.157	257.116	-237.584	635.8	-335.739	90.748	592.895	-100.745	121.173	639.725	-3.628	-341.933	682.559	-342.161	-306.128	131.5	-90.21	-0.006172	0.003716	0.000167	-0.031672	-0.001974	0.006821
-354.712	113.249	-149.722	-264.063	112.032	233.766	-179.285	83.174	257.143	-237.512	635.843	-335.69	91.295	593.085	-100.974	121.872	640.113	-3.97	-341.836	682.578	-342.23	-306.086	131.509	-90.23	-0.004778	0.005246	-0.004321	-0.039796	-0.004795	0.013026
-354.691	113.23	-149.731	-264.051	112.039	233.767	-179.283	83.2	257.143	-237.378	635.898	-335.649	91.855	593.346	-101.16	122.74	640.439	-4.419	-341.708	682.577	-342.303	-306.126	131.474	-90.225	-0.010763	0.005535	-0.001604	-0.040461	-0.018477	0.014928
-354.683	113.218	-149.733	-264.049	112.052	233.772	-179.276	83.242	257.148	-237.252	635.98	-335.501	92.313	593.657	-101.485	123.794	640.732	-4.937	-341.607	682.569	-342.382	-306.092	131.481	-90.228	-0.009949	0.013551	-0.003927	-0.030326	-0.012467	0.0171
-354.679	113.196	-149.747	-264.062	112.072	233.772	-179.281	83.253	257.157	-237.12	636.043	-335.447	92.793	593.896	-101.83	124.947	640.955	-5.525	-341.504	682.578	-342.456	-306.101	131.467	-90.233	-0.00995	0.014934	-0.001741	-0.026739	0.005896	0.013421
-354.669	113.192	-149.749	-264.058	112.079	233.777	-179.296	83.268	257.177	-237.013	636.096	-335.345	93.37	594.157	-102.132	126.269	641.141	-6.173	-341.416	682.574	-342.528	-306.104	131.473	-90.267	-0.016489	0.014905	0.006318	-0.033991	0.009606	0.006031
-354.665	113.194	-149.763	-264.069	112.051	233.752	-179.314	83.284	257.17	-236.894	636.15	-335.284	93.958	594.456	-102.484	127.87	641.288	-6.984	-341.35	682.576	-342.607	-306.126	131.475	-90.26	-0.01255	0.021095	0.006494	-0.060349	-0.017296	0.006356
-354.692	113.192	-149.781	-264.072	112.053	233.759	-179.314	83.318	257.198	-236.813	636.187	-335.274	94.654	594.749	-102.982	129.421	641.458	-7.761	-341.289	682.596	-342.656	-306.132	131.497	-90.269	-0.011766	0.014265	0.009699	-0.08949	-0.048457	0.002801
-354.709	113.188	-149.798	-264.124	112.037	233.736	-179.33	83.318	257.2	-236.758	636.238	-335.217	95.449	594.932	-103.507	131.07	641.621	-8.613	-341.237	682.612	-342.723	-306.162	131.511	-90.274	-0.007201	0.013173	0.007777	-0.111687	-0.042086	0.009035
-354.722	113.193	-149.81	-264.146	112.019	233.723	-179.361	83.346	257.195	-236.744	636.256	-335.173	96.34	595.079	-104.093	132.811	641.724	-9.535	-341.352	682.708	-342.626	-306.168	131.533	-90.283	-0.008953	0.02311	0.004983	-0.117535	0.002674	0.030842
-354.749	113.195	-149.823	-264.18	111.979	233.689	-179.36	83.346	257.203	-236.725	636.297	-335.186	97.289	595.294	-104.732	134.703	641.841	-10.473	-341.355	682.73	-342.67	-306.199	131.553	-90.331	-0.000839	0.013992	0.004659	-0.118349	0.053627	0.055168
-354.758	113.214	-149.836	-264.202	111.971	233.679	-179.398	83.371	257.184	-236.759	636.328	-335.192	98.297	595.504	-105.324	136.755	641.954	-11.504	-341.365	682.738	-342.712	-306.222	131.555	-90.323	0.007438	0.012101	-0.004492	-0.105859	0.091473	0.069727
-354.773	113.221	-149.844	-264.247	111.949	233.653	-179.45	83.376	257.184	-236.802	636.366	-335.205	99.871	595.478	-106.271	138.919	642.067	-12.654	-341.402	682.732	-342.765	-306.235	131.57	-90.336	0.000379	0.012843	-0.004379	-0.094889	0.110252	0.079633
-354.79	113.23	-149.836	-264.279	111.907	233.627	-179.486	83.393	257.191	-236.862	636.357	-335.233	101.387	595.749	-107.02	141.332	642.225	-13.808	-341.437	682.723	-342.831	-306.246	131.596	-90.364	0.000622	0.01496	-0.004244	-0.09255	0.100304	0.079863
-354.8	113.221	-149.854	-264.345	111.907	233.568	-179.52	83.4	257.204	-236.923	636.374	-335.255	102.978	596.084	-107.652	143.802	642.332	-15.068	-341.474	682.709	-342.878	-306.257	131.609	-90.349	0.001653	0.019968	-0.002664	-0.0921	0.091413	0.070302
-354.8	113.224	-149.873	-264.396	111.863	233.525	-179.547	83.423	257.208	-237.019	636.368	-335.358	104.618	596.371	-108.462	146.462	642.437	-16.398	-341.55	682.694	-342.932	-306.3	131.607	-90.377	-0.002479	0.016921	-0.006067	-0.103966	0.069362	0.061919
-354.834	113.227	-149.875	-264.435	111.845	233.493	-179.586	83.472	257.176	-237.11	636.347	-335.402	106.373	596.543	-109.5	149.213	642.524	-17.833	-341.632	682.665	-343.0	-306.329	131.617	-90.381	0.002184	0.018773	-0.002145	-0.093296	0.065562	0.063165
-354.841	113.222	-149.86	-264.497	111.836	233.445	-179.616	83.495	257.182	-237.224	636.321	-335.471	108.215	596.801	-110.472	152.115	642.638	-19.285	-341.737	682.626	-343.053	-306.329	131.631	-90.385	0.003112	0.012611	-0.004699	-0.078364	0.059382	0.053422
-354.832	113.227	-149.879	-264.537	111.805	233.398	-179.645	83.523	257.169	-237.369	636.312	-335.58	110.476	596.995	-111.655	155.142	642.742	-20.826	-341.835	682.606	-343.121	-306.342	131.653	-90.384	0.003455	0.014452	-0.008071	-0.074972	0.061102	0.052569
-354.839	113.236	-149.859	-264.605	111.789	233.366	-179.684	83.555	257.179	-237.486	636.278	-335.661	112.756	597.223	-112.817	158.292	642.824	-22.444	-341.945	682.556	-343.185	-306.337	131.68	-90.386	0.005161	0.01261	-0.013603	-0.091537	0.070795	0.077775
-354.851	113.244	-149.872	-264.642	111.741	233.331	-179.721	83.561	257.169	-237.618	636.24	-335.774	114.952	597.378	-113.86	161.62	642.94	-24.127	-342.062	682.534	-343.224	-306.368	131.687	-90.364	0.001795	0.015993	-0.010501	-0.136549	0.065685	0.09337
-354.854	113.242	-149.852	-264.713	111.726	233.31	-179.787	83.579	257.156	-237.746	636.175	-335.808	117.281	597.612	-115.029	165.019	643.08	-25.877	-342.17	682.488	-343.277	-306.39	131.679	-90.363	-0.001752	0.009899	-0.002909	-0.152393	0.058217	0.08633
-354.862	113.25	-149.845	-264.761	111.693	233.295	-179.84	83.571	257.128	-237.886	636.121	-335.92	119.889	597.944	-116.329	168.49	643.282	-27.743	-342.275	682.447	-343.301	-306.357	131.719	-90.277	-0.008111	0.004412	-0.004752	-0.138059	0.05356	0.090331
-354.85	113.257	-149.837	-264.816	111.649	233.252	-179.894	83.555	257.101	-237.97	636.107	-335.942	122.905	598.279	-118.122	172.073	643.546	-29.673	-342.393	682.415	-343.301	-306.321	131.72	-90.255	-0.006496	-0.002632	0.000784	-0.123541	0.052253	0.09214
-354.859	113.266	-149.826	-264.875	111.641	233.236	-179.917	83.588	257.117	-238.07	636.069	-335.987	126.471	598.745	-120.453	175.64	643.839	-31.708	-342.506	682.404	-343.308	-306.314	131.747	-90.169	-0.00394	-0.001661	0.000422	-0.133239	0.061015	0.092064
-354.861	113.272	-149.79	-264.887	111.625	233.239	-179.94	83.594	257.096	-238.203	636.028	-336.092	129.434	599.028	-122.158	179.271	644.194	-33.745	-342.636	682.378	-343.297	-306.292	131.754	-90.068	-0.004364	-0.00269	-0.0	-0.136682	0.065747	0.072086
-354.867	113.284	-149.793	-264.905	111.622	233.236	-179.93	83.599	257.104	-238.302	635.97	-336.159	132.432	599.272	-123.86	182.902	644.59	-35.841	-342.743	682.3	-343.287	-306.301	131.769	-90.027	-0.000383	-0.001546	-0.005558	-0.124256	0.068761	0.0798
-354.85	113.286	-149.761	-264.874	111.641	233.259	-179.926	83.574	257.096	-238.391	635.936	-336.168	135.566	599.58	-125.671	186.551	644.926	-37.978	-342.833	682.229	-343.279	-306.412	131.735	-90.231	-0.001563	0.002039	-0.000321	-0.109768	0.064138	0.083667
-354.839	113.287	-149.748	-264.865	111.612	233.237	-179.916	83.576	257.085	-238.47	635.891	-336.183	138.679	599.815	-127.6	190.189	645.286	-40.144	-342.894	682.136	-343.241	-306.436	131.737	-90.192	0.006048	0.007652	0.003507	-0.110443	0.064826	0.076026
-354.845	113.304	-149.734	-264.828	111.635	233.247	-179.906	83.584	257.121	-238.552	635.811	-336.204	141.821	600.138	-129.553	193.785	645.62	-42.414	-342.977	682.066	-343.218	-306.406	131.742	-90.164	0.002554	0.00329	0.005157	-0.116328	0.053364	0.066631
-354.832	113.323	-149.72	-264.81	111.671	233.272	-179.863	83.55	257.12	-238.6	635.707	-336.219	144.974	600.446	-131.587	197.396	646.007	-44.634	-343.066	682.001	-343.195	-306.391	131.739	-90.165	0.002126	0.005344	0.002416	-0.128946	0.037151	0.053185
-354.848	113.343	-149.731	-264.735	111.683	233.303	-179.804	83.563	257.124	-238.625	635.648	-336.23	148.185	600.838	-133.63	200.957	646.438	-46.947	-343.111	681.909	-343.163	-306.42	131.725	-90.135	0.008845	0.002275	0.006313	-0.136151	0.02073	0.040934
-354.86	113.354	-149.708	-264.686	111.72	233.322	-179.759	83.558	257.146	-238.69	635.58	-336.274	151.412	601.213	-135.834	204.515	646.894	-49.41	-343.159	681.835	-343.122	-306.412	131.735	-90.141	0.008265	-0.002184	0.00434	-0.120471	0.006476	0.025757
-354.855	113.361	-149.704	-264.647	111.743	233.327	-179.71	83.578	257.148	-238.707	635.498	-336.247	154.632	601.676	-138.007	207.919	647.358	-52.245	-343.179	681.734	-343.074	-306.395	131.717	-90.127	0.004815	-0.002953	-0.001369	-0.104036	-0.000293	0.019117
-354.858	113.374	-149.677	-264.582	111.762	233.339	-179.654	83.578	257.182	-238.723	635.432	-336.231	157.831	602.116	-140.23	211.454	647.868	-54.73	-343.367	681.806	-342.853	-306.394	131.715	-90.097	0.007824	-0.007406	-0.006298	-0.086719	0.00475	0.015195
-354.85	113.399	-149.674	-264.534	111.785	233.36	-179.628	83.573	257.161	-238.721	635.392	-336.172	161.022	602.546	-142.563	215.012	648.367	-57.306	-343.377	681.711	-342.801	-306.389	131.697	-90.094	0.011575	-0.006661	-0.006971	-0.05887	0.025063	0.00781
-354.847	113.404	-149.677	-264.475	111.781	233.395	-179.596	83.58	257.17	-238.711	635.33	-336.179	164.258	603.012	-144.977	218.579	648.908	-59.835	-343.405	681.658	-342.747	-306.379	131.693	-90.081	0.01082	-0.0079	-0.001902	-0.040815	0.044425	-0.000496
-354.849	113.43	-149.651	-264.431	111.814	233.411	-179.557	83.564	257.19	-238.673	635.293	-336.125	167.389	603.494	-147.436	222.103	649.387	-62.492	-343.396	681.584	-342.687	-306.358	131.718	-90.087	0.005112	-0.001749	0.002321	-0.033114	0.048794	-0.015303
-354.831	113.446	-149.65	-264.417	111.826	233.413	-179.541	83.552	257.213	-238.622	635.264	-336.049	170.468	604.014	-149.981	225.64	649.907	-65.2	-343.397	681.552	-342.61	-306.341	131.7	-90.054	0.00653	-0.005171	0.00524	-0.038389	0.044	-0.019965
-354.843	113.457	-149.62	-264.409	111.841	233.429	-179.545	83.566	257.183	-238.593	635.243	-336.001	173.557	604.519	-152.703	229.152	650.469	-68.03	-343.369	681.487	-342.569	-306.332	131.673	-90.038	0.013881	-0.002133	0.008125	-0.040968	0.040952	-0.02956
-354.808	113.481	-149.607	-264.389	111.844	233.436	-179.53	83.578	257.211	-238.516	635.243	-335.895	176.663	605.15	-155.485	232.625	651.071	-70.963	-343.357	681.46	-342.476	-306.286	131.699	-89.914	0.010368	0.006172	0.009392	-0.049853	0.025914	-0.037719
-354.8	113.52	-149.568	-264.416	111.848	233.424	-179.521	83.554	257.185	-238.459	635.238	-335.783	179.551	605.828	-158.117	236.103	651.773	-73.916	-343.292	681.415	-342.404	-306.26	131.7	-89.826	0.005236	0.003504	0.000563	-0.065343	0.007112	-0.039492
-354.79	113.55	-149.544	-264.397	111.844	233.427	-179.524	83.537	257.156	-238.418	635.258	-335.728	182.334	606.453	-160.74	239.458	652.426	-77.027	-343.278	681.403	-342.322	-306.198	131.743	-89.749	0.007467	0.005888	-0.004637	-0.067602	0.01	-0.047413
-354.804	113.583	-149.52	-264.414	111.853	233.409	-179.54	83.535	257.18	-238.372	635.245	-335.638	185.146	607.133	-163.562	242.765	653.099	-80.13	-343.201	681.32	-342.289	-306.202	131.766	-89.678	-0.004332	0.002152	-0.001201	-0.055127	0.025275	-0.039554
-354.801	113.619	-149.501	-264.397	111.84	233.408	-179.556	83.526	257.168	-238.325	635.257	-335.498	187.852	607.782	-166.348	246.057	653.814	-83.29	-343.174	681.266	-342.224	-306.179	131.779	-89.606	0.00085	0.007526	0.000128	-0.038993	0.050566	-0.037836
-354.821	113.667	-149.472	-264.382	111.845	233.397	-179.555	83.541	257.155	-238.292	635.219	-335.341	190.433	608.46	-169.09	249.269	654.509	-86.443	-343.147	681.24	-342.127	-306.317	131.763	-89.809	-0.001397	0.00428	0.000772	-0.027195	0.059583	-0.042916
-354.83	113.707	-149.444	-264.389	111.842	233.41	-179.54	83.542	257.169	-238.264	635.215	-335.22	192.891	609.12	-171.915	252.397	655.193	-89.691	-343.099	681.178	-342.058	-306.3	131.799	-89.723	-0.006362	0.010483	0.003525	-0.030146	0.069022	-0.046279
-354.835	113.765	-149.421	-264.392	111.842	233.391	-179.542	83.549	257.16	-238.227	635.194	-335.126	194.828	609.669	-174.836	255.472	655.929	-93.029	-343.059	681.137	-341.956	-306.331	131.833	-89.771	-0.001829	0.015718	0.003484	-0.03271	0.063632	-0.043103
-354.857	113.823	-149.395	-264.357	111.859	233.404	-179.534	83.53	257.163	-238.165	635.177	-335.002	196.875	610.328	-177.496	258.255	656.36	-96.725	-343.023	681.11	-341.87	-306.33	131.873	-89.667	-0.001829	0.012311	0.004224	-0.061765	0.055661	-0.062486
-354.875	113.884	-149.341	-264.351	111.851	233.379	-179.509	83.538	257.159	-238.138	635.122	-334.883	199.167	610.959	-180.374	261.181	657.08	-100.133	-342.985	681.066	-341.8	-306.337	131.898	-89.591	-0.001012	0.010361	0.003527	-0.076799	0.048391	-0.072358
-354.892	113.945	-149.324	-264.315	111.858	233.399	-179.464	83.573	257.153	-238.131	635.109	-334.766	202.06	611.617	-183.474	264.021	657.796	-103.525	-342.947	681.043	-341.726	-306.322	131.939	-89.492	-0.001612	0.012119	0.007873	-0.071245	0.038336	-0.077662
-354.92	113.992	-149.309	-264.298	111.898	233.397	-179.442	83.554	257.151	-238.118	635.129	-334.619	204.044	612.269	-186.321	266.716	658.52	-106.992	-342.91	680.99	-341.671	-306.457	131.942	-89.627	0.000891	0.018082	0.00352	-0.053802	0.041562	-0.082251
-354.94	114.049	-149.288	-264.241	111.904	233.392	-179.415	83.551	257.142	-238.103	635.113	-334.524	205.869	612.94	-189.016	269.363	659.254	-110.397	-342.889	680.955	-341.625	-306.466	131.965	-89.63	-0.000497	0.012531	0.003606	-0.02736	0.037739	-0.089581
-354.982	114.108	-149.273	-264.2	111.926	233.395	-179.344	83.559	257.139	-238.097	635.094	-334.443	207.509	613.525	-191.531	271.863	659.989	-113.817	-342.902	680.939	-341.557	-306.472	132.025	-89.613	0.005445	0.008292	0.003019	-0.012405	0.03561	-0.096355
-355.007	114.16	-149.272	-264.15	111.962	233.391	-179.303	83.554	257.135	-238.063	635.086	-334.321	208.754	613.877	-193.789	274.253	660.802	-117.158	-342.884	680.929	-341.489	-306.524	132.034	-89.589	0.004323	0.015813	0.002995	-0.011768	0.037985	-0.102627
-355.032	114.206	-149.233	-264.092	111.993	233.406	-179.235	83.576	257.139	-238.035	635.06	-334.227	210.17	613.179	-197.775	276.548	661.63	-120.523	-342.872	680.945	-341.411	-306.559	132.068	-89.548	0.001563	0.010979	0.003121	-0.02423	0.026633	-0.09661
-355.049	114.256	-149.205	-264.028	112.014	233.399	-179.179	83.584	257.135	-238.047	635.052	-334.168	213.072	615.836	-200.523	278.747	662.477	-123.845	-342.846	680.957	-341.341	-306.543	132.105	-89.532	-0.001899	0.007662	0.009064	-0.03541	0.037084	-0.09838
-355.042	114.303	-149.178	-263.953	112.08	233.425	-179.111	83.589	257.126	-238.056	635.046	-334.106	214.443	616.691	-202.876	280.881	663.349	-126.955	-342.81	680.956	-341.259	-306.543	132.133	-89.514	0.001515	0.017183	0.011364	-0.020578	0.046869	-0.108675
-355.035	114.342	-149.151	-263.866	112.127	233.446	-179.039	83.595	257.138	-238.027	635.033	-334.068	215.47	617.466	-205.164	282.917	664.205	-130.276	-342.811	681.003	-341.212	-306.546	132.171	-89.46	0.002659	0.017179	0.010907	-0.009192	0.040853	-0.115699
-355.048	114.371	-149.126	-263.775	112.182	233.441	-178.947	83.601	257.119	-237.996	635.046	-334.024	216.33	618.161	-207.696	284.844	665.019	-133.521	-342.747	681.017	-341.145	-306.561	132.178	-89.431	0.003819	0.015683	0.006844	0.00373	0.027877	-0.116405
-355.064	114.407	-149.128	-263.667	112.221	233.484	-178.857	83.601	257.115	-237.973	635.057	-334.02	217.337	618.777	-210.361	286.724	665.809	-136.671	-342.727	681.054	-341.077	-306.595	132.205	-89.406	0.008578	0.015637	0.007122	0.010055	0.019495	-0.132762
-355.064	114.45	-149.109	-263.589	112.264	233.512	-178.882	83.586	257.117	-237.935	635.063	-334.034	218.719	619.401	-213.005	288.473	666.584	-139.785	-342.676	681.073	-341.042	-306.592	132.225	-89.388	0.010482	0.017867	0.004426	0.006665	0.008581	-0.127207
-355.072	114.483	-149.101	-263.516	112.282	233.519	-178.801	83.582	257.104	-237.92	635.087	-334.017	220.849	620.244	-214.866	290.137	667.373	-142.797	-342.651	681.119	-341.008	-306.598	132.258	-89.383	0.012151	0.011452	0.011258	-0.000452	0.002293	-0.133707
-355.076	114.507	-149.073	-263.431	112.342	233.573	-178.73	83.581	257.113	-237.874	635.087	-333.984	221.913	620.959	-217.231	291.682	668.149	-145.747	-342.601	681.14	-340.955	-306.608	132.27	-89.345	0.004505	0.01094	0.014352	-0.014782	-0.02181	-0.129624
-355.096	114.561	-149.062	-263.35	112.38	233.619	-178.648	83.554	257.114	-237.854	635.101	-333.909	222.804	621.634	-219.34	293.162	668.937	-148.545	-342.529	681.176	-340.911	-306.604	132.296	-89.306	0.007901	0.011501	0.014709	-0.012094	-0.021539	-0.12316
-355.092	114.601	-149.038	-263.233	112.43	233.673	-178.569	83.559	257.117	-237.832	635.116	-333.92	223.756	622.311	-221.503	294.512	669.686	-151.26	-342.656	681.35	-340.681	-306.625	132.344	-89.274	0.011996	0.006053	0.013773	-0.009584	-0.022392	-0.123323
-355.102	114.638	-149.009	-263.153	112.485	233.738	-178.476	83.553	257.128	-237.783	635.1	-333.911	224.586	622.912	-223.492	295.796	670.422	-153.799	-342.59	681.373	-340.647	-306.637	132.355	-89.257	0.011154	0.009456	0.015626	0.002805	-0.014168	-0.124009
-355.102	114.692	-148.979	-263.047	112.538	233.779	-178.41	83.543	257.111	-237.736	635.105	-333.841	225.391	623.469	-225.408	296.96	671.059	-156.218	-342.526	681.416	-340.591	-306.654	132.394	-89.214	0.006433	-0.000811	0.017573	0.020116	-0.007018	-0.130264
-355.11	114.737	-148.966	-262.957	112.585	233.827	-178.33	83.525	257.091	-237.666	635.114	-333.833	226.109	624.006	-227.212	298.06	671.678	-158.477	-342.475	681.451	-340.542	-306.657	132.438	-89.199	0.006396	0.004192	0.015738	0.028282	-0.00375	-0.132577
-355.122	114.794	-148.949	-262.875	112.641	233.872	-178.245	83.512	257.099	-237.592	635.096	-333.791	226.781	624.488	-228.856	299.015	672.216	-160.59	-342.363	681.44	-340.536	-306.676	132.475	-89.165	0.003323	0.003497	0.016101	0.038638	-0.016124	-0.14446
-355.143	114.834	-148.948	-262.783	112.707	233.932	-178.166	83.501	257.091	-237.527	635.105	-333.76	227.174	624.642	-231.329	299.917	672.744	-162.502	-342.244	681.444	-340.504	-306.701	132.418	-89.201	0.001762	0.003424	0.009934	0.057143	-0.038971	-0.141739
-355.14	114.882	-148.895	-262.707	112.765	233.985	-178.08	83.474	257.071	-237.465	635.071	-333.71	228.019	625.155	-232.911	300.748	673.234	-164.262	-342.128	681.451	-340.488	-306.661	132.38	-89.162	0.000131	0.002648	0.006657	0.044137	-0.049104	-0.136479
-355.148	114.93	-148.863	-262.632	112.811	234.034	-177.996	83.462	257.087	-237.382	635.052	-333.685	228.731	625.611	-234.078	301.443	673.673	-165.922	-342.037	681.465	-340.457	-306.625	132.342	-89.138	0.007126	-0.003464	-0.000145	0.033503	-0.053918	-0.143556
-355.166	114.984	-148.833	-262.55	112.879	234.099	-177.927	83.459	257.076	-237.307	635.045	-333.654	229.335	626.031	-235.234	301.956	673.942	-167.739	-341.943	681.489	-340.448	-306.575	132.32	-89.087	0.006869	-0.002147	-0.002761	0.031857	-0.063467	-0.138224
-355.181	115.047	-148.801	-262.474	112.932	234.153	-177.856	83.45	257.078	-237.203	635.029	-333.611	229.718	626.304	-236.479	302.531	674.35	-169.076	-341.797	681.498	-340.433	-306.546	132.287	-89.043	0.001395	-0.004355	-0.002492	0.047666	-0.061905	-0.136432
-355.195	115.119	-148.764	-262.387	113.0	234.244	-177.752	83.453	257.096	-237.105	635.018	-333.551	230.198	626.727	-237.219	303.087	674.731	-170.249	-341.678	681.52	-340.41	-306.486	132.284	-88.984	-0.000327	0.000665	-9.5e-05	0.072915	-0.071138	-0.136512
-355.216	115.189	-148.745	-262.311	113.067	234.305	-177.666	83.439	257.109	-236.978	635.037	-333.513	230.61	627.049	-237.847	303.572	675.046	-171.292	-341.549	681.539	-340.414	-306.459	132.264	-88.922	-2.7e-05	-0.002402	0.000942	0.090388	-0.075357	-0.144917
-355.233	115.272	-148.694	-262.245	113.104	234.375	-177.626	83.428	257.108	-236.857	635.015	-333.43	230.969	627.313	-238.378	304.013	675.323	-172.163	-341.436	681.547	-340.417	-306.435	132.285	-88.852	-0.003188	0.004765	0.005505	0.096783	-0.080285	-0.147065
-355.268	115.343	-148.665	-262.169	113.142	234.437	-177.521	83.446	257.132	-236.747	635.004	-333.421	231.271	627.513	-238.98	304.401	675.555	-172.917	-341.29	681.547	-340.453	-306.393	132.271	-88.766	-0.008543	0.007434	-0.000783	0.091468	-0.081541	-0.147316
-355.29	115.413	-148.628	-262.097	113.197	234.503	-177.475	83.443	257.121	-236.571	634.987	-333.348	231.52	627.638	-239.48	304.75	675.768	-173.506	-341.135	681.519	-340.494	-306.385	132.252	-88.732	-0.00755	0.001302	0.001076	0.097031	-0.085	-0.145769
-355.314	115.486	-148.579	-262.019	113.248	234.588	-177.426	83.423	257.131	-236.438	634.947	-333.287	231.602	627.65	-239.705	305.008	675.906	-173.995	-340.977	681.498	-340.511	-306.423	132.312	-88.656	0.003154	0.0073	-0.004403	0.096745	-0.089194	-0.142828
-355.326	115.564	-148.542	-262.018	113.272	234.639	-177.374	83.411	257.139	-236.256	634.946	-333.319	231.887	627.739	-239.994	305.234	676.042	-174.346	-340.831	681.51	-340.545	-306.438	132.38	-88.605	0.002719	0.006279	-0.012161	0.083287	-0.089023	-0.136363
-355.348	115.633	-148.479	-261.972	113.3	234.671	-177.341	83.413	257.139	-236.107	634.916	-333.262	232.092	627.74	-240.16	305.441	676.116	-174.522	-340.655	681.487	-340.574	-306.47	132.414	-88.548	0.005025	0.002337	-0.022151	0.08365	-0.093153	-0.130795
-355.385	115.714	-148.468	-261.933	113.336	234.728	-177.316	83.398	257.137	-235.946	634.89	-333.252	232.304	627.754	-240.239	305.586	676.165	-174.539	-340.467	681.471	-340.644	-306.51	132.49	-88.473	0.010268	0.007922	-0.025028	0.07938	-0.091713	-0.122412
-355.407	115.784	-148.429	-261.907	113.376	234.772	-177.293	83.4	257.14	-235.778	634.899	-333.269	232.36	627.666	-240.106	305.698	676.148	-174.44	-340.309	681.464	-340.739	-306.544	132.538	-88.445	0.005749	0.006491	-0.012668	0.07572	-0.090843	-0.11142
-355.44	115.857	-148.398	-261.856	113.374	234.78	-177.265	83.402	257.147	-235.617	634.895	-333.237	232.403	627.561	-239.883	305.715	676.045	-174.2	-340.12	681.43	-340.846	-306.57	132.578	-88.393	-0.002984	0.009259	-0.009044	0.078111	-0.086406	-0.108099
-355.472	115.942	-148.379	-261.848	113.404	234.81	-177.23	83.417	257.149	-235.417	634.863	-333.192	232.433	627.397	-239.597	305.684	675.885	-173.79	-339.948	681.416	-340.972	-306.629	132.654	-88.361	-0.005886	0.007374	-0.003756	0.09888	-0.075497	-0.110729
-355.509	116.005	-148.361	-261.816	113.409	234.822	-177.223	83.412	257.132	-235.239	634.841	-333.186	232.408	627.197	-239.122	305.569	675.647	-173.253	-339.78	681.363	-341.116	-306.69	132.732	-88.343	-0.007231	0.005266	-0.001259	0.096133	-0.077666	-0.103628
-355.548	116.087	-148.357	-261.831	113.434	234.831	-177.246	83.404	257.118	-235.066	634.763	-333.249	232.284	626.835	-238.593	305.403	675.385	-172.566	-339.595	681.316	-341.284	-306.746	132.831	-88.338	-0.002724	0.000859	0.000619	0.091466	-0.068246	-0.105878
-355.583	116.137	-148.332	-261.807	113.428	234.835	-177.223	83.395	257.117	-234.876	634.7	-333.32	232.084	626.435	-237.981	305.125	674.983	-171.709	-339.422	681.261	-341.443	-306.808	132.9	-88.317	0.001035	-0.003549	-0.00703	0.080095	-0.078388	-0.103048
-355.609	116.182	-148.324	-261.793	113.427	234.856	-177.212	83.388	257.112	-234.692	634.614	-333.376	231.88	625.961	-237.308	304.777	674.536	-170.707	-339.207	681.189	-341.655	-306.87	133.011	-88.312	0.003803	-0.014943	-0.011119	0.07077	-0.085514	-0.096341
-355.643	116.213	-148.322	-261.793	113.447	234.86	-177.192	83.408	257.105	-234.544	634.554	-333.405	231.486	625.336	-236.456	304.369	674.023	-169.569	-339.018	681.083	-341.844	-306.932	133.069	-88.301	0.011835	-0.011652	-0.01545	0.077006	-0.088998	-0.101612
-355.664	116.226	-148.318	-261.79	113.457	234.865	-177.211	83.386	257.109	-234.365	634.518	-333.492	231.081	624.753	-235.485	303.881	673.473	-168.246	-338.854	681.025	-342.038	-306.992	133.141	-88.295	0.009528	-0.008009	-0.016346	0.088792	-0.074908	-0.097991
-355.676	116.25	-148.312	-261.784	113.457	234.85	-177.227	83.364	257.087	-234.196	634.446	-333.555	230.025	624.342	-232.905	303.31	672.855	-166.796	-338.677	680.95	-342.264	-307.001	133.184	-88.306	0.008637	-0.000665	-0.013704	0.10095	-0.071764	-0.108661
-355.698	116.259	-148.327	-261.794	113.437	234.852	-177.195	83.373	257.112	-234.003	634.416	-333.581	229.229	623.432	-232.141	302.656	672.218	-165.192	-338.482	680.874	-342.499	-307.043	133.206	-88.309	0.001704	0.000117	-0.009602	0.103518	-0.055487	-0.114337
-355.686	116.242	-148.341	-261.799	113.453	234.855	-177.203	83.37	257.101	-233.829	634.377	-333.671	228.227	622.945	-229.023	301.908	671.493	-163.44	-338.317	680.831	-342.702	-307.051	133.22	-88.307	0.001239	-0.004483	-0.005338	0.111907	-0.054446	-0.120311
-355.674	116.229	-148.327	-261.789	113.456	234.857	-177.202	83.341	257.088	-233.68	634.325	-333.725	227.463	622.223	-227.262	301.062	670.699	-161.473	-338.128	680.748	-342.914	-307.065	133.262	-88.316	-0.006598	-0.012732	-0.001798	0.109557	-0.063704	-0.130778
-355.673	116.208	-148.361	-261.782	113.451	234.885	-177.191	83.37	257.094	-233.518	634.292	-333.768	226.772	621.415	-225.493	300.146	669.844	-159.379	-338.002	680.722	-343.119	-307.082	133.271	-88.315	-0.008326	-0.009566	-0.004105	0.109314	-0.062361	-0.132055
-355.66	116.188	-148.358	-261.81	113.461	234.873	-177.201	83.347	257.102	-233.385	634.27	-333.854	225.824	620.483	-223.409	299.137	668.87	-157.091	-337.832	680.634	-343.343	-307.083	133.293	-88.327	-0.01178	-0.022396	-0.014289	0.111478	-0.06177	-0.141854
-355.653	116.154	-148.368	-261.816	113.48	234.881	-177.207	83.343	257.083	-233.23	634.211	-333.883	224.855	619.441	-221.288	297.998	667.745	-154.722	-337.677	680.563	-343.556	-307.075	133.282	-88.31	-0.004238	-0.022776	-0.015917	0.1197	-0.053081	-0.133304
-355.631	116.12	-148.38	-261.786	113.458	234.888	-177.192	83.345	257.107	-233.085	634.17	-333.943	223.692	618.323	-218.996	296.824	666.58	-152.163	-337.509	680.466	-343.784	-307.098	133.282	-88.336	-0.006324	-0.02264	-0.006849	0.105496	-0.05517	-0.13215
-355.63	116.084	-148.384	-261.781	113.445	234.898	-177.201	83.343	257.102	-232.946	634.113	-333.976	222.43	617.183	-216.595	295.484	665.321	-149.425	-337.343	680.393	-344.012	-307.114	133.298	-88.34	-0.012797	-0.024524	-0.002197	0.100843	-0.063164	-0.132765
-355.604	116.056	-148.401	-261.797	113.447	234.867	-177.188	83.356	257.096	-232.83	634.078	-333.972	221.197	616.066	-214.043	294.057	664.11	-146.526	-337.188	680.338	-344.192	-307.086	133.276	-88.335	-0.020472	-0.014006	0.005991	0.093383	-0.069726	-0.136871
-355.597	116.019	-148.401	-261.805	113.467	234.861	-177.186	83.366	257.085	-232.667	634.072	-333.95	218.595	614.275	-212.719	292.461	662.877	-143.489	-337.057	680.332	-344.365	-307.105	133.253	-88.359	-0.022987	-0.008129	0.004164	0.092087	-0.072463	-0.129086
-355.594	115.991	-148.428	-261.79	113.447	234.863	-177.203	83.358	257.112	-232.493	634.089	-333.959	216.659	613.321	-209.326	290.774	661.727	-140.35	-336.884	680.314	-344.539	-307.131	133.269	-88.343	-0.019737	-0.006012	0.007554	0.094045	-0.078318	-0.131557
-355.598	115.967	-148.463	-261.814	113.447	234.865	-177.192	83.345	257.096	-232.301	634.133	-333.955	216.14	612.571	-205.599	288.93	660.537	-137.154	-336.705	680.32	-344.704	-307.08	133.258	-88.317	-0.013607	-0.0062	0.008086	0.107176	-0.071854	-0.143847
-355.59	115.922	-148.475	-261.804	113.409	234.863	-177.216	83.351	257.098	-232.128	634.169	-333.952	214.929	611.497	-203.137	287.011	659.314	-133.919	-336.53	680.314	-344.872	-307.167	133.259	-88.391	-0.013424	-0.012043	0.005678	0.114998	-0.06177	-0.146728
-355.594	115.902	-148.501	-261.863	113.419	234.849	-177.229	83.362	257.11	-231.971	634.236	-333.931	213.414	610.293	-200.571	285.022	658.065	-130.611	-336.333	680.291	-345.075	-307.14	133.279	-88.401	-0.007991	-0.009852	-0.004858	0.136846	-0.045282	-0.155038
-355.589	115.892	-148.529	-261.865	113.399	234.853	-177.244	83.38	257.106	-231.838	634.286	-333.929	211.644	608.973	-197.83	282.954	656.748	-127.286	-336.165	680.297	-345.241	-307.142	133.25	-88.413	-0.005632	-0.005854	-0.004667	0.149318	-0.033965	-0.164848
-355.579	115.882	-148.543	-261.901	113.378	234.836	-177.279	83.347	257.08	-231.663	634.343	-333.89	209.483	607.716	-194.721	280.807	655.431	-123.889	-336.011	680.308	-345.376	-307.118	133.231	-88.436	0.001164	0.00326	-0.003079	0.155815	-0.027771	-0.167202
-355.608	115.85	-148.584	-261.948	113.381	234.826	-177.303	83.371	257.074	-231.505	634.39	-333.894	207.322	606.563	-191.599	278.535	654.105	-120.466	-335.85	680.319	-345.517	-307.145	133.244	-88.418	-0.008103	0.011873	-0.004538	0.132457	-0.044212	-0.16622
-355.597	115.834	-148.597	-261.967	113.352	234.8	-177.337	83.367	257.064	-231.345	634.438	-333.899	205.231	605.422	-188.56	276.215	652.867	-116.977	-335.693	680.362	-345.667	-307.148	133.221	-88.484	-0.003622	0.015059	0.003706	0.075184	-0.069491	-0.174404
-355.598	115.794	-148.615	-262.037	113.343	234.789	-177.379	83.383	257.08	-231.191	634.476	-333.901	203.175	604.325	-185.617	273.773	651.673	-113.456	-335.499	680.387	-345.792	-307.15	133.189	-88.496	-0.006348	0.018163	0.004689	0.021842	-0.080912	-0.165715
-355.606	115.772	-148.659	-262.067	113.312	234.777	-177.423	83.367	257.066	-231.029	634.552	-333.907	200.966	603.182	-182.573	271.26	650.528	-109.897	-335.331	680.439	-345.906	-307.144	133.159	-88.512	-0.005203	0.015258	0.005545	0.004	-0.068154	-0.155297
-355.587	115.744	-148.687	-262.149	113.259	234.746	-177.483	83.36	257.061	-230.876	634.659	-333.85	198.774	602.154	-179.506	268.702	649.418	-106.283	-335.173	680.549	-346.02	-307.157	133.144	-88.564	0.000178	0.015128	0.003113	0.007203	-0.04349	-0.149215
-355.592	115.707	-148.707	-262.212	113.227	234.74	-177.505	83.38	257.065	-230.685	634.791	-333.803	196.555	601.124	-176.356	266.154	648.337	-102.67	-335.012	680.637	-346.114	-307.098	133.138	-88.581	0.004041	0.009948	-0.002923	0.042807	-0.016294	-0.137581
-355.587	115.676	-148.726	-262.275	113.188	234.721	-177.59	83.396	257.068	-230.581	634.916	-333.797	194.477	600.093	-173.232	263.563	647.235	-99.114	-334.86	680.718	-346.242	-307.136	133.107	-88.583	0.005075	0.010704	-0.007612	0.05407	0.016982	-0.118914
-355.573	115.634	-148.745	-262.348	113.14	234.715	-177.646	83.389	257.063	-230.463	635.042	-333.734	192.243	599.123	-170.058	260.916	646.097	-95.537	-334.703	680.781	-346.331	-306.908	132.854	-88.14	0.003897	0.014466	-0.006564	0.04375	0.026272	-0.111909
-355.561	115.602	-148.783	-262.439	113.108	234.664	-177.745	83.401	257.046	-230.334	635.189	-333.696	189.794	598.128	-166.868	258.257	644.98	-91.989	-334.599	680.893	-346.418	-306.869	132.664	-88.657	0.01057	0.011513	-0.002478	0.038609	0.01816	-0.111291
-355.546	115.573	-148.791	-262.52	113.075	234.646	-177.81	83.398	257.051	-230.244	635.298	-333.65	187.378	597.228	-163.785	255.572	643.965	-88.42	-334.508	681.003	-346.467	-306.983	132.955	-88.192	0.001961	0.010921	0.001477	0.009184	-0.005838	-0.103966
-355.545	115.545	-148.824	-262.617	113.023	234.611	-177.88	83.383	257.03	-230.175	635.431	-333.619	185.284	596.296	-161.056	252.821	643.062	-84.826	-334.399	681.126	-346.507	-306.83	132.539	-88.286	-0.001631	0.006559	0.003317	-0.020968	-0.032728	-0.099745
-355.534	115.511	-148.831	-262.708	112.981	234.597	-177.954	83.393	257.023	-230.109	635.565	-333.602	183.061	595.397	-158.067	249.999	642.255	-81.225	-334.336	681.294	-346.537	-306.816	132.55	-88.943	-0.000805	0.002065	0.003774	-0.040397	-0.051501	-0.092986
-355.544	115.484	-148.846	-262.784	112.96	234.567	-178.047	83.386	257.012	-230.063	635.711	-333.557	180.404	594.727	-154.476	247.115	641.453	-77.657	-334.256	681.405	-346.561	-307.081	132.997	-88.756	7.4e-05	0.002016	0.007804	-0.040969	-0.048151	-0.062777
-355.538	115.459	-148.862	-262.839	112.891	234.57	-178.105	83.416	257.047	-229.991	635.872	-333.513	177.597	594.079	-151.033	244.239	640.67	-74.073	-334.232	681.557	-346.552	-307.098	133.027	-88.721	-0.004773	0.005038	0.008842	-0.033975	-0.030868	-0.049917
-355.516	115.426	-148.854	-262.921	112.844	234.552	-178.157	83.413	257.024	-229.975	636.002	-333.481	175.104	593.36	-147.858	241.359	639.92	-70.526	-334.206	681.66	-346.543	-307.102	133.013	-88.755	-0.001002	0.000555	0.007859	-0.019654	-0.009095	-0.044873
-355.502	115.402	-148.869	-262.973	112.831	234.55	-178.218	83.417	257.052	-229.963	636.126	-333.436	172.505	592.611	-144.737	238.494	639.111	-66.972	-334.2	681.761	-346.534	-307.107	133.033	-88.776	-0.003043	-0.001564	0.01189	-0.010335	0.021467	-0.04793
-355.489	115.378	-148.882	-263.06	112.817	234.543	-178.265	83.453	257.057	-229.931	636.214	-333.428	169.806	591.897	-141.456	235.766	638.37	-63.523	-334.181	681.856	-346.509	-307.085	133.035	-88.789	-0.002119	-0.003751	0.014518	0.001144	0.046965	-0.054265
-355.478	115.336	-148.863	-263.092	112.779	234.548	-178.307	83.449	257.057	-229.948	636.29	-333.347	167.107	591.212	-138.246	232.853	637.619	-59.902	-334.179	681.952	-346.461	-307.126	133.029	-88.823	-0.003387	-0.005876	0.018581	-0.001727	0.048493	-0.043713
-355.458	115.301	-148.875	-263.168	112.75	234.522	-178.349	83.44	257.073	-229.952	636.384	-333.321	164.39	590.554	-134.983	229.82	636.917	-56.373	-334.177	682.074	-346.396	-307.138	133.018	-88.808	0.000481	-0.005846	0.02264	-0.042929	0.003383	-0.046419
-355.436	115.253	-148.874	-263.206	112.743	234.531	-178.391	83.467	257.066	-229.948	636.464	-333.275	161.721	590.001	-131.777	226.834	636.37	-52.731	-334.172	682.191	-346.311	-307.172	132.954	-88.854	-0.005785	-0.005606	0.019331	-0.084941	-0.045976	-0.055024
-355.419	115.219	-148.865	-263.238	112.722	234.527	-178.414	83.471	257.088	-229.979	636.527	-333.191	159.041	589.476	-128.679	223.748	635.882	-49.17	-334.16	682.315	-346.242	-307.14	132.964	-88.862	-0.00327	-0.003178	0.019679	-0.099808	-0.052263	-0.049588
-355.391	115.183	-148.88	-263.291	112.711	234.53	-178.45	83.488	257.086	-229.954	636.636	-333.098	156.215	588.933	-125.498	220.677	635.456	-45.623	-334.149	682.424	-346.155	-307.134	132.953	-88.856	-0.00435	0.000837	0.019242	-0.08083	-0.025676	-0.033895
-355.365	115.134	-148.861	-263.311	112.695	234.524	-178.484	83.486	257.104	-229.954	636.723	-333.051	153.646	588.535	-122.11	217.637	635.039	-42.114	-334.121	682.518	-346.059	-307.099	132.932	-88.832	0.002664	0.005385	0.014532	-0.048189	0.008307	-0.01673
-355.333	115.106	-148.86	-263.362	112.668	234.545	-178.502	83.5	257.124	-229.963	636.83	-332.955	150.936	588.07	-119.027	214.546	634.595	-38.648	-334.111	682.626	-345.998	-307.068	132.916	-88.84	-0.002813	0.003625	0.014183	-0.017987	0.02336	-0.022779
-355.312	115.06	-148.865	-263.375	112.653	234.546	-178.528	83.52	257.146	-229.92	636.921	-332.877	148.093	587.636	-115.903	211.458	634.127	-35.275	-334.093	682.717	-345.892	-307.086	132.879	-88.844	0.000565	0.001619	0.011812	0.008617	0.038355	-0.033827
-355.294	115.024	-148.853	-263.405	112.619	234.54	-178.558	83.52	257.144	-229.899	637.001	-332.774	145.225	587.211	-112.783	208.411	633.699	-31.888	-334.038	682.794	-345.811	-307.043	132.865	-88.817	0.000412	0.004	0.010866	0.016037	0.037258	-0.035772
-355.254	115.015	-148.867	-263.454	112.631	234.546	-178.594	83.524	257.148	-229.857	637.074	-332.624	142.348	586.843	-109.724	205.324	633.276	-28.574	-334.006	682.901	-345.691	-307.022	132.852	-88.83	0.001706	0.001947	0.00784	-0.007832	0.01637	-0.037692
-355.222	114.951	-148.859	-263.468	112.578	234.526	-178.606	83.54	257.164	-229.822	637.16	-332.537	139.416	586.447	-106.901	202.203	632.912	-25.355	-333.966	682.998	-345.598	-307.314	133.336	-88.802	0.003025	-5.9e-05	0.006281	-0.041919	-0.023446	-0.043245
-355.193	114.905	-148.862	-263.526	112.566	234.518	-178.625	83.521	257.167	-229.759	637.225	-332.39	136.561	586.172	-103.877	199.144	632.661	-22.128	-333.893	683.094	-345.474	-307.265	133.294	-88.793	0.004411	-0.000603	0.002535	-0.077839	-0.039908	-0.037506
-355.136	114.842	-148.86	-263.569	112.555	234.506	-178.657	83.527	257.167	-229.686	637.325	-332.282	133.648	585.986	-101.027	196.021	632.434	-18.992	-333.808	683.192	-345.346	-307.219	133.229	-88.817	0.001487	0.003344	-0.002051	-0.093426	-0.036687	-0.030446
-355.081	114.788	-148.859	-263.599	112.54	234.504	-178.67	83.528	257.178	-229.601	637.446	-332.13	130.742	585.769	-98.169	192.972	632.253	-15.895	-333.732	683.295	-345.218	-307.179	133.163	-88.819	0.004246	0.002197	-0.002213	-0.082891	-0.010873	-0.020436
-355.037	114.705	-148.83	-263.65	112.53	234.513	-178.71	83.513	257.191	-229.541	637.546	-331.994	127.87	585.657	-95.374	189.903	632.103	-12.862	-333.692	683.432	-345.079	-307.121	133.101	-88.83	0.005655	0.006113	-0.006072	-0.05438	0.025247	-0.004566
-354.975	114.639	-148.856	-263.653	112.48	234.507	-178.735	83.536	257.203	-229.478	637.658	-331.831	124.973	585.565	-92.71	186.844	632.01	-9.878	-333.609	683.524	-344.941	-307.041	133.039	-88.823	0.004825	0.007832	-0.009919	-0.029916	0.048218	-0.004636
-354.898	114.569	-148.817	-263.682	112.447	234.496	-178.754	83.561	257.203	-229.395	637.757	-331.676	122.101	585.589	-90.017	183.798	631.912	-7.008	-333.524	683.609	-344.815	-306.977	132.943	-88.804	0.006149	0.008003	-0.011524	-0.020223	0.056596	-0.000368
-354.823	114.475	-148.836	-263.742	112.426	234.489	-178.765	83.576	257.216	-229.349	637.864	-331.517	119.244	585.577	-87.436	180.784	631.854	-4.205	-333.454	683.718	-344.693	-306.86	132.825	-88.684	0.003793	0.007401	-0.009471	-0.032319	0.046046	-0.002248
-354.767	114.415	-148.825	-263.798	112.411	234.467	-178.833	83.577	257.217	-229.284	637.951	-331.303	116.366	585.674	-84.839	177.792	631.904	-1.411	-333.382	683.796	-344.566	-306.798	132.666	-88.561	0.002846	0.00674	-0.001572	-0.054585	0.033914	-0.006413
-354.715	114.344	-148.83	-263.833	112.378	234.441	-178.86	83.569	257.214	-229.226	638.058	-331.134	113.602	585.816	-82.347	174.699	631.737	1.364	-333.363	683.909	-344.433	-306.782	132.504	-88.787	0.002689	0.00599	-0.002386	-0.070996	0.018032	-0.012589
-354.652	114.255	-148.835	-263.888	112.348	234.443	-178.897	83.595	257.214	-229.19	638.155	-330.948	110.781	586.071	-79.776	171.736	631.944	4.099	-333.314	683.992	-344.316	-306.698	132.649	-88.856	-0.002583	0.007532	-0.000379	-0.085984	0.010176	-0.020335
-354.602	114.187	-148.84	-263.956	112.314	234.42	-178.932	83.57	257.187	-229.167	638.2	-330.812	108.065	586.401	-77.319	168.834	632.219	6.809	-333.277	684.062	-344.2	-306.612	132.555	-88.861	-0.005705	0.005397	-0.000492	-0.083997	0.010442	-0.013925
-354.54	114.123	-148.87	-264.029	112.281	234.404	-178.985	83.572	257.196	-229.123	638.256	-330.692	105.556	586.757	-74.882	165.86	632.606	9.504	-333.254	684.125	-344.081	-306.557	132.481	-88.868	-0.003018	0.003873	0.000149	-0.073506	0.023886	-0.006432
-354.484	114.002	-148.868	-264.097	112.236	234.394	-179.019	83.561	257.202	-229.101	638.273	-330.59	103.323	587.076	-72.722	162.941	633.07	12.192	-333.239	684.22	-343.947	-306.471	132.433	-88.835	0.003433	0.00964	0.001443	-0.068908	0.032971	-0.004543
-354.426	113.924	-148.862	-264.124	112.209	234.388	-179.068	83.562	257.216	-229.074	638.282	-330.451	100.993	587.397	-70.369	159.963	633.607	14.877	-333.204	684.249	-343.838	-306.39	132.381	-88.771	-0.001301	0.002572	0.005679	-0.067354	0.034801	-0.009423
-354.389	113.866	-148.884	-264.174	112.18	234.376	-179.124	83.59	257.195	-229.044	638.261	-330.377	98.516	587.77	-68.051	156.985	634.216	17.529	-333.169	684.29	-343.739	-306.313	132.327	-88.727	0.003553	0.001083	0.008497	-0.064259	0.038227	-0.005617
-354.338	113.806	-148.881	-264.231	112.141	234.379	-179.161	83.597	257.19	-229.035	638.261	-330.236	94.658	588.266	-65.368	153.969	634.922	20.18	-333.113	684.299	-343.652	-306.215	132.286	-88.664	0.000471	0.004057	0.011951	-0.070261	0.025043	-0.003641
-354.309	113.749	-148.877	-264.27	112.13	234.375	-179.197	83.602	257.205	-229.015	638.226	-330.169	92.154	588.881	-63.024	150.948	635.677	22.772	-333.088	684.324	-343.553	-306.157	132.267	-88.621	-0.000523	-0.001074	0.011898	-0.078789	0.004756	-0.005646
-354.295	113.714	-148.885	-264.355	112.145	234.361	-179.242	83.598	257.213	-228.998	638.229	-330.071	89.338	590.034	-60.275	147.783	636.509	25.337	-333.082	684.336	-343.48	-306.113	132.218	-88.579	-0.00068	-0.003351	0.006746	-0.095733	-0.011674	-0.011803
-354.258	113.682	-148.888	-264.374	112.099	234.371	-179.286	83.594	257.203	-228.964	638.195	-329.974	86.839	590.736	-58.049	144.765	637.45	27.868	-333.052	684.336	-343.411	-306.039	132.201	-88.505	0.001944	-0.009119	0.011065	-0.099663	-0.019046	-0.005148
-354.241	113.643	-148.892	-264.414	112.091	234.374	-179.321	83.59	257.211	-228.949	638.177	-329.899	84.422	591.523	-55.846	141.766	638.449	30.339	-333.019	684.343	-343.347	-306.008	132.197	-88.466	0.000289	-0.013427	0.005151	-0.097281	-0.038573	-0.00689
-354.221	113.619	-148.884	-264.448	112.081	234.383	-179.364	83.581	257.227	-228.929	638.166	-329.843	82.205	592.41	-53.71	138.737	639.454	32.7	-333.002	684.348	-343.271	-305.95	132.168	-88.378	0.001648	-0.011896	0.00137	-0.087974	-0.044767	-0.016256
-354.216	113.593	-148.885	-264.487	112.079	234.38	-179.389	83.595	257.217	-228.915	638.099	-329.803	79.752	593.331	-51.743	135.704	640.509	35.128	-332.979	684.358	-343.215	-305.934	132.154	-88.31	0.003541	-0.016122	0.00416	-0.075033	-0.039019	-0.018173
-354.211	113.586	-148.888	-264.52	112.083	234.377	-179.405	83.603	257.214	-228.899	638.077	-329.741	77.49	594.256	-49.774	132.643	641.565	37.395	-332.966	684.35	-343.166	-305.932	132.152	-88.358	0.002557	-0.017383	0.007617	-0.060108	-0.038965	-0.027321
-354.188	113.573	-148.897	-264.516	112.057	234.405	-179.4	83.609	257.238	-228.885	638.075	-329.685	75.235	595.241	-47.886	129.524	642.718	39.656	-332.922	684.37	-343.088	-305.927	132.109	-88.349	0.000894	-0.016427	0.008849	-0.053022	-0.032966	-0.026639
-354.193	113.538	-148.902	-264.533	112.062	234.392	-179.425	83.61	257.242	-228.896	638.041	-329.652	72.994	596.238	-46.1	126.42	643.965	41.791	-332.879	684.376	-343.038	-305.898	132.103	-88.341	-0.000779	-0.017632	0.007919	-0.062943	-0.039227	-0.026557
-354.176	113.54	-148.887	-264.543	112.074	234.394	-179.414	83.59	257.251	-228.874	638.048	-329.593	70.884	597.18	-44.375	123.287	645.246	43.858	-332.874	684.399	-342.986	-305.907	132.042	-88.384	0.00206	-0.014509	0.001884	-0.07157	-0.040256	-0.03182
-354.155	113.514	-148.897	-264.541	112.1	234.422	-179.424	83.583	257.249	-228.834	638.05	-329.482	68.876	598.117	-42.801	120.203	646.64	45.795	-332.853	684.429	-342.897	-305.903	132.066	-88.356	0.004868	-0.009746	-0.002802	-0.079219	-0.034468	-0.030935
-354.159	113.489	-148.901	-264.511	112.079	234.437	-179.415	83.61	257.272	-228.828	638.068	-329.424	66.872	599.123	-41.367	117.103	648.048	47.582	-332.795	684.442	-342.861	-305.868	132.015	-88.372	0.013344	-0.008605	-0.007505	-0.088516	-0.010361	-0.034065
-354.124	113.452	-148.886	-264.488	112.078	234.425	-179.39	83.602	257.271	-228.793	638.106	-329.322	64.94	600.111	-39.951	114.047	649.522	49.302	-332.753	684.496	-342.781	-305.857	131.997	-88.375	0.010253	0.003007	-0.009571	-0.085932	0.018936	-0.028406
-354.095	113.435	-148.883	-264.492	112.116	234.432	-179.397	83.611	257.281	-228.763	638.177	-329.259	63.081	601.259	-38.67	111.012	650.979	50.839	-332.718	684.524	-342.691	-305.822	131.951	-88.346	0.014163	0.001386	-0.006347	-0.085086	0.036522	-0.021324
-354.074	113.397	-148.883	-264.466	112.112	234.445	-179.367	83.592	257.274	-228.74	638.231	-329.141	61.11	602.49	-37.497	108.034	652.422	52.212	-332.682	684.579	-342.606	-305.795	131.9	-88.37	0.010238	0.008494	-0.007612	-0.070518	0.023331	-0.020857
-354.046	113.376	-148.876	-264.431	112.093	234.458	-179.369	83.602	257.289	-228.698	638.23	-329.072	59.227	603.699	-36.467	105.178	653.855	53.496	-332.623	684.585	-342.523	-305.748	131.872	-88.381	0.011275	0.009652	-0.001463	-0.069701	0.00916	-0.031548
-354.017	113.355	-148.888	-264.427	112.094	234.464	-179.366	83.597	257.284	-228.652	638.279	-328.968	57.409	605.009	-35.577	102.351	655.296	54.657	-332.596	684.659	-342.431	-305.708	131.864	-88.393	0.004413	0.014366	-0.001901	-0.074293	-0.00281	-0.033337
-354.017	113.331	-148.86	-264.436	112.11	234.46	-179.367	83.578	257.282	-228.616	638.311	-328.845	55.562	606.289	-34.753	99.57	656.728	55.69	-332.524	684.669	-342.337	-305.736	131.812	-88.365	0.002637	0.017436	-0.001508	-0.080788	-0.003594	-0.02563
-353.992	113.319	-148.869	-264.493	112.137	234.48	-179.368	83.593	257.297	-228.565	638.321	-328.756	53.796	607.598	-34.01	96.839	658.214	56.653	-332.487	684.692	-342.252	-305.7	131.8	-88.416	0.000792	0.019075	0.005451	-0.085632	-0.004135	-0.038022
-353.971	113.301	-148.881	-264.48	112.117	234.486	-179.388	83.576	257.303	-228.542	638.313	-328.628	52.215	608.877	-33.372	94.095	659.793	57.495	-332.44	684.725	-342.134	-305.689	131.784	-88.397	-0.003982	0.01705	0.001502	-0.089745	0.002407	-0.040143
-353.969	113.292	-148.891	-264.488	112.112	234.478	-179.406	83.577	257.284	-228.498	638.352	-328.541	50.703	610.044	-32.71	91.392	661.422	58.288	-332.384	684.727	-342.042	-305.664	131.755	-88.421	1.4e-05	0.017075	0.001245	-0.105474	0.029795	-0.034443
-353.95	113.277	-148.893	-264.548	112.118	234.492	-179.433	83.569	257.281	-228.46	638.374	-328.448	49.211	611.306	-32.208	88.699	663.074	58.983	-332.344	684.755	-341.954	-305.642	131.762	-88.414	0.001124	0.020855	0.003808	-0.118455	0.060966	-0.037
-353.939	113.266	-148.89	-264.548	112.111	234.484	-179.44	83.562	257.293	-228.435	638.402	-328.361	47.797	612.392	-31.796	86.066	664.727	59.638	-332.292	684.733	-341.87	-305.606	131.728	-88.423	-0.000766	0.019646	0.007853	-0.126475	0.080414	-0.041064
-353.935	113.237	-148.882	-264.599	112.09	234.5	-179.486	83.56	257.279	-228.41	638.383	-328.317	46.582	613.522	-31.422	83.382	666.264	60.096	-332.305	684.76	-341.812	-305.618	131.696	-88.43	0.003233	0.017564	0.008355	-0.127872	0.084438	-0.02463
-353.919	113.213	-148.909	-264.624	112.087	234.485	-179.51	83.548	257.256	-228.41	638.389	-328.258	45.31	614.549	-31.185	80.9	667.833	60.535	-332.282	684.773	-341.726	-305.618	131.663	-88.415	0.000728	0.0155	0.005212	-0.125494	0.093132	-0.020276
-353.927	113.202	-148.899	-264.665	112.071	234.48	-179.525	83.555	257.268	-228.419	638.398	-328.204	44.185	615.499	-30.968	78.446	669.37	60.893	-332.291	684.761	-341.653	-305.6	131.661	-88.392	0.001175	0.015594	0.011578	-0.12771	0.094926	-0.016521
-353.913	113.189	-148.905	-264.697	112.046	234.458	-179.576	83.549	257.26	-228.425	638.39	-328.16	43.043	616.343	-31.049	76.105	670.865	61.183	-332.316	684.771	-341.612	-305.593	131.639	-88.412	-0.001122	0.019238	0.009215	-0.122643	0.084007	-0.016858
-353.918	113.162	-148.896	-264.742	112.04	234.457	-179.601	83.549	257.261	-228.459	638.417	-328.097	42.082	617.434	-30.811	73.832	672.302	61.354	-332.354	684.804	-341.554	-305.581	131.649	-88.433	-1.8e-05	0.011218	0.015021	-0.11177	0.052486	-0.017863
-353.904	113.153	-148.914	-264.766	112.008	234.441	-179.639	83.547	257.239	-228.521	638.417	-328.031	40.946	618.269	-31.11	71.733	673.657	61.425	-332.4	684.817	-341.495	-305.582	131.623	-88.434	0.002674	0.005262	0.014319	-0.105496	0.017307	-0.014943
-353.908	113.137	-148.887	-264.8	112.004	234.44	-179.661	83.556	257.233	-228.56	638.416	-328.073	39.948	619.08	-31.272	69.707	674.881	61.303	-332.444	684.836	-341.436	-305.578	131.637	-88.455	0.005447	0.002284	0.013585	-0.102108	0.000576	-0.019441
-353.915	113.146	-148.908	-264.816	111.982	234.433	-179.681	83.582	257.243	-228.612	638.423	-328.035	39.163	619.857	-31.49	67.74	676.013	61.194	-332.523	684.867	-341.376	-305.579	131.621	-88.44	0.00752	0.000838	0.009149	-0.103302	0.011233	-0.011492
-353.918	113.133	-148.911	-264.854	112.001	234.411	-179.716	83.587	257.228	-228.715	638.504	-328.044	38.299	620.407	-31.827	65.79	677.084	60.922	-332.583	684.86	-341.312	-305.562	131.622	-88.437	0.002936	-0.002484	0.008971	-0.088538	0.040415	0.013099
-353.931	113.129	-148.913	-264.863	111.969	234.421	-179.717	83.57	257.237	-228.844	638.826	-327.982	37.58	620.96	-32.259	63.966	677.94	60.672	-332.687	684.926	-341.223	-305.576	131.615	-88.428	0.003578	0.000667	0.002908	-0.08659	0.064418	0.019846
-353.938	113.131	-148.919	-264.874	111.966	234.429	-179.725	83.578	257.232	-228.962	639.296	-327.857	36.964	621.327	-32.771	62.229	678.701	60.318	-332.776	684.986	-341.135	-305.583	131.613	-88.453	0.001202	0.000302	0.001936	-0.092044	0.080254	0.022251
-353.938	113.131	-148.905	-264.867	111.975	234.416	-179.715	83.579	257.237	-229.107	639.436	-327.798	36.308	621.845	-33.343	60.546	679.427	59.936	-332.823	685.027	-341.058	-305.606	131.606	-88.445	0.000242	-0.003043	-0.001168	-0.089603	0.089316	0.015787
-353.927	113.144	-148.897	-264.877	111.973	234.422	-179.733	83.587	257.229	-229.177	638.834	-327.898	35.71	622.184	-33.892	58.907	680.065	59.423	-332.895	685.12	-340.993	-305.588	131.648	-88.424	0.002971	-0.003592	-0.001333	-0.096377	0.082922	0.017502
-353.934	113.15	-148.902	-264.882	111.984	234.417	-179.726	83.591	257.238	-229.286	639.13	-327.838	35.147	622.493	-34.754	57.352	680.635	58.866	-332.967	685.231	-340.918	-305.596	131.619	-88.399	0.001221	-0.006198	0.010875	-0.103112	0.087385	0.033285
-353.934	113.145	-148.896	-264.879	111.984	234.408	-179.716	83.604	257.232	-229.351	639.39	-327.752	34.571	622.889	-35.679	55.865	681.15	58.211	-333.031	685.333	-340.859	-305.604	131.635	-88.407	-0.001775	-0.003819	0.009232	-0.110186	0.106942	0.047282
-353.931	113.156	-148.89	-264.85	111.967	234.418	-179.711	83.609	257.24	-229.398	639.662	-327.646	33.219	624.165	-36.455	54.438	681.562	57.467	-333.092	685.446	-340.782	-305.613	131.606	-88.421	-0.001081	0.000656	0.006876	-0.10265	0.123241	0.044137
-353.924	113.154	-148.88	-264.84	111.976	234.412	-179.712	83.584	257.239	-229.42	639.872	-327.643	32.457	624.949	-37.794	53.092	681.895	56.662	-333.132	685.532	-340.687	-305.58	131.619	-88.431	-0.000447	0.002233	0.00088	-0.083858	0.1406	0.042802
-353.927	113.153	-148.885	-264.826	111.985	234.427	-179.688	83.586	257.255	-229.365	640.069	-327.726	31.602	626.083	-39.242	51.789	682.145	55.792	-333.167	685.609	-340.641	-305.598	131.608	-88.402	0.001614	0.005368	-0.000808	-0.068858	0.142259	0.062032
-353.915	113.152	-148.873	-264.785	111.979	234.436	-179.675	83.589	257.236	-229.255	639.683	-327.944	32.92	625.781	-39.039	50.55	682.345	54.88	-333.176	685.685	-340.558	-305.571	131.618	-88.395	0.002806	0.002741	0.001179	-0.050613	0.148976	0.059265
-353.915	113.141	-148.879	-264.756	112.01	234.441	-179.638	83.585	257.254	-228.87	638.293	-328.708	32.685	626.004	-40.275	49.359	682.494	53.873	-333.201	685.768	-340.483	-305.555	131.624	-88.384	0.004096	0.00519	0.002391	-0.059325	0.131902	0.051021
-353.906	113.154	-148.867	-264.734	112.023	234.44	-179.617	83.596	257.258	-228.881	638.353	-328.695	32.47	626.169	-41.491	48.246	682.671	52.869	-333.191	685.851	-340.41	-305.55	131.591	-88.369	0.001749	0.006873	-0.001497	-0.06514	0.108088	0.040444
-353.9	113.139	-148.86	-264.698	112.018	234.462	-179.595	83.581	257.257	-228.877	638.426	-328.679	32.333	626.307	-42.778	47.164	682.856	51.757	-333.186	685.929	-340.33	-305.556	131.59	-88.414	-0.002728	0.010013	-0.003189	-0.075456	0.083455	0.030882
-353.887	113.145	-148.857	-264.679	112.034	234.447	-179.567	83.579	257.253	-228.847	638.475	-328.619	32.316	626.51	-44.11	46.112	683.066	50.598	-333.182	686.007	-340.266	-305.545	131.579	-88.39	0.000707	0.011601	0.005384	-0.074554	0.08265	0.022218
-353.892	113.147	-148.854	-264.645	112.064	234.457	-179.535	83.596	257.26	-228.835	638.515	-328.574	32.29	626.716	-45.419	45.156	683.301	49.389	-333.153	686.077	-340.198	-305.553	131.616	-88.381	-0.004572	0.009513	0.003802	-0.072022	0.106993	0.015197
-353.89	113.167	-148.853	-264.624	112.084	234.46	-179.519	83.586	257.26	-228.809	638.584	-328.507	32.395	626.987	-46.918	44.215	683.491	48.129	-333.128	686.136	-340.136	-305.545	131.588	-88.383	-0.008348	0.008904	0.00734	-0.079601	0.116486	0.019812
-353.893	113.167	-148.848	-264.56	112.087	234.471	-179.479	83.606	257.268	-228.753	638.626	-328.467	32.421	627.237	-48.347	43.3	683.652	46.828	-333.104	686.219	-340.072	-305.559	131.556	-88.375	-0.011408	0.006099	0.010926	-0.073724	0.115463	0.027905
-353.895	113.176	-148.85	-264.526	112.09	234.477	-179.459	83.595	257.262	-228.735	638.658	-328.428	32.647	627.556	-49.94	42.438	683.806	45.51	-333.063	686.267	-340.034	-305.564	131.593	-88.352	-0.003475	0.003086	0.01172	-0.072145	0.105333	0.020128
-353.902	113.181	-148.831	-264.512	112.119	234.467	-179.434	83.591	257.26	-228.719	638.712	-328.396	32.837	627.938	-51.546	41.598	683.944	44.152	-333.027	686.374	-340.001	-305.538	131.614	-88.341	-0.014333	0.008431	0.01008	-0.065716	0.086278	0.030878
-353.892	113.186	-148.833	-264.477	112.116	234.482	-179.412	83.605	257.278	-228.672	638.712	-328.356	33.01	628.336	-53.155	40.76	684.027	42.757	-332.942	686.451	-339.98	-305.569	131.616	-88.363	-0.004993	0.001828	0.005783	-0.05719	0.06898	0.023869
-353.905	113.187	-148.848	-264.435	112.1	234.486	-179.391	83.618	257.278	-228.643	638.74	-328.335	33.298	628.743	-54.776	39.977	684.151	41.378	-332.85	686.452	-339.979	-305.541	131.634	-88.364	-0.003684	-0.002247	0.008616	-0.0583	0.039789	0.007323
-353.913	113.203	-148.858	-264.405	112.111	234.492	-179.363	83.615	257.27	-228.619	638.722	-328.322	33.514	629.12	-56.324	39.205	684.303	39.942	-332.709	686.239	-339.966	-305.535	131.637	-88.334	-0.001357	0.004506	0.003373	-0.071124	0.01362	-0.000313
-353.919	113.193	-148.868	-264.431	112.137	234.473	-179.354	83.599	257.266	-228.585	638.751	-328.301	33.837	629.55	-57.883	38.404	684.53	38.537	-332.665	686.268	-339.959	-305.55	131.632	-88.368	-0.003576	0.002693	0.002538	-0.077308	0.001489	-0.01256
-353.931	113.211	-148.857	-264.423	112.139	234.484	-179.343	83.611	257.259	-228.571	638.763	-328.273	34.078	629.978	-59.391	37.686	684.767	37.167	-332.806	686.444	-339.747	-305.583	131.626	-88.386	-0.002849	7.1e-05	0.001776	-0.064206	0.005627	-0.014528
-353.925	113.208	-148.86	-264.394	112.135	234.478	-179.345	83.609	257.278	-228.518	638.834	-328.29	34.485	630.459	-60.957	36.95	684.983	35.787	-332.775	686.506	-339.695	-305.567	131.668	-88.363	0.000991	0.007455	-0.00048	-0.041992	0.017039	-0.012593
-353.925	113.205	-148.86	-264.406	112.147	234.473	-179.322	83.6	257.26	-228.511	638.854	-328.26	34.833	630.895	-62.43	36.236	685.182	34.406	-332.8	686.612	-339.682	-305.609	131.646	-88.405	-0.001257	0.001035	-0.001152	-0.032359	0.023168	-0.012838
-353.931	113.206	-148.85	-264.39	112.143	234.479	-179.33	83.615	257.248	-228.506	638.911	-328.228	35.28	631.355	-64.008	35.557	685.307	33.018	-332.697	686.617	-339.672	-305.575	131.665	-88.364	-0.000578	-0.003209	-0.004055	-0.027325	0.027668	-0.011483
-353.933	113.219	-148.87	-264.389	112.158	234.47	-179.319	83.624	257.262	-228.486	638.926	-328.193	35.87	631.743	-65.614	34.889	685.36	31.67	-332.534	686.6	-339.753	-305.571	131.695	-88.339	0.00153	-0.007428	-0.006983	-0.033721	0.032761	0.007978
-353.935	113.225	-148.888	-264.382	112.148	234.483	-179.326	83.621	257.258	-228.472	638.979	-328.197	36.434	632.067	-67.199	34.424	685.257	30.257	-332.445	686.497	-339.733	-305.593	131.683	-88.346	0.003015	-0.004313	-0.007097	-0.034489	0.030077	0.007771
-353.939	113.241	-148.89	-264.375	112.125	234.475	-179.347	83.595	257.257	-228.431	639.006	-328.232	37.123	632.384	-68.821	33.774	685.164	28.874	-332.386	686.518	-339.736	-305.615	131.721	-88.383	-0.000612	-0.00032	-0.005833	-0.017062	0.016081	0.003463
-353.951	113.251	-148.899	-264.387	112.136	234.461	-179.335	83.584	257.26	-228.394	639.029	-328.222	37.691	632.546	-70.33	33.114	685.092	27.48	-332.341	686.571	-339.74	-305.598	131.731	-88.345	0.000708	-0.004454	-0.002242	-0.00967	-0.015289	0.017064
-353.959	113.267	-148.903	-264.401	112.13	234.457	-179.333	83.597	257.267	-228.386	639.058	-328.194	38.283	632.665	-71.833	32.511	685.035	26.121	-332.306	686.615	-339.722	-305.635	131.723	-88.413	-4.1e-05	-0.002024	0.003467	-0.012864	-0.052272	0.019816
-353.954	113.268	-148.913	-264.408	112.122	234.463	-179.346	83.588	257.255	-228.338	639.137	-328.218	38.995	632.72	-73.295	31.955	684.977	24.801	-332.284	686.718	-339.69	-305.652	131.737	-88.39	-0.005148	0.000427	0.006972	-0.027537	-0.069076	0.019913
-353.959	113.276	-148.907	-264.425	112.131	234.452	-179.358	83.598	257.251	-228.333	639.179	-328.155	39.639	632.786	-74.712	31.456	684.87	23.462	-332.235	686.785	-339.689	-305.634	131.743	-88.401	0.000727	0.001096	-0.002501	-0.031323	-0.036663	0.040649
-353.966	113.267	-148.904	-264.422	112.136	234.452	-179.37	83.604	257.236	-227.835	639.35	-328.908	40.279	632.791	-76.11	30.971	684.698	22.178	-332.19	686.865	-339.678	-305.626	131.764	-88.388	0.009441	0.005551	0.006153	-0.025539	0.017054	0.020602
-353.949	113.263	-148.91	-264.434	112.107	234.455	-179.354	83.588	257.248	-226.5	639.839	-331.429	40.939	632.772	-77.443	30.582	684.511	20.93	-332.137	686.927	-339.657	-305.617	131.769	-88.399	0.002043	0.004381	0.00087	-0.026353	0.034441	0.047752
-353.94	113.271	-148.903	-264.444	112.122	234.45	-179.353	83.597	257.234	-227.74	639.878	-330.409	41.599	632.772	-78.69	30.254	684.276	19.737	-332.073	686.985	-339.643	-305.616	131.744	-88.434	0.003349	0.004616	0.000687	-0.025922	0.042677	0.071522
-353.949	113.265	-148.91	-264.435	112.133	234.462	-179.354	83.602	257.253	-227.521	640.014	-330.784	42.043	632.688	-79.819	30.043	684.01	18.647	-332.038	687.035	-339.629	-305.65	131.738	-88.431	0.000227	0.000542	-0.006055	-0.014083	0.059375	0.053519
-353.953	113.264	-148.925	-264.429	112.123	234.44	-179.357	83.599	257.246	-227.39	640.08	-331.071	42.665	632.619	-80.995	29.974	683.648	17.475	-331.978	687.063	-339.602	-305.618	131.745	-88.409	0.002235	0.003022	0.000265	-0.000638	0.050104	0.042043
-353.948	113.266	-148.929	-264.392	112.11	234.449	-179.341	83.601	257.25	-227.203	640.106	-331.44	43.242	632.485	-81.992	29.956	683.296	16.557	-331.947	687.105	-339.575	-305.623	131.756	-88.414	0.000586	0.004025	0.00734	-0.009159	0.010268	0.045365
-353.932	113.274	-148.925	-264.395	112.137	234.434	-179.32	83.624	257.256	-227.064	640.152	-331.724	43.154	631.226	-83.663	30.039	682.94	15.72	-331.908	687.14	-339.536	-305.611	131.76	-88.378	0.00129	0.006202	0.002882	-0.021988	-0.027123	0.061248
-353.944	113.27	-148.931	-264.402	112.16	234.447	-179.311	83.609	257.259	-226.879	640.221	-332.127	43.862	630.732	-84.581	30.203	682.494	14.983	-331.868	687.149	-339.502	-305.636	131.759	-88.429	-0.002457	0.001224	0.004345	-0.037934	-0.039531	0.04729
-353.946	113.26	-148.942	-264.39	112.124	234.44	-179.319	83.633	257.263	-226.789	640.204	-332.344	44.384	630.228	-85.324	30.425	682.029	14.419	-331.783	687.138	-339.474	-305.628	131.734	-88.433	-0.003938	0.002748	0.008662	-0.036364	-0.014355	0.067283
-353.939	113.267	-148.929	-264.377	112.148	234.439	-179.297	83.618	257.253	-226.618	640.271	-332.733	44.85	629.741	-85.965	30.754	681.535	13.983	-331.76	687.143	-339.45	-305.6	131.752	-88.417	-0.006912	0.002093	0.010804	-0.034561	0.00439	0.083462
-353.951	113.273	-148.937	-264.36	112.151	234.443	-179.283	83.616	257.257	-226.597	640.223	-332.697	45.112	629.155	-86.417	31.172	680.929	13.613	-331.721	687.136	-339.409	-305.656	131.714	-88.456	-0.003276	0.00206	0.007155	-0.03508	0.009108	0.085956
-353.945	113.267	-148.922	-264.339	112.157	234.45	-179.268	83.619	257.264	-226.605	640.2	-332.634	45.613	628.521	-86.835	31.616	680.338	13.396	-331.7	687.132	-339.374	-305.603	131.738	-88.457	0.000195	-0.002963	0.008601	-0.047498	-0.005087	0.103509
-353.941	113.282	-148.926	-264.316	112.148	234.438	-179.25	83.601	257.256	-226.585	640.198	-332.659	45.738	627.977	-87.055	32.185	679.712	13.287	-331.655	687.127	-339.344	-305.601	131.727	-88.425	0.000882	-0.000663	0.006285	-0.072462	-0.028063	0.111998
-353.931	113.286	-148.917	-264.306	112.169	234.463	-179.24	83.624	257.273	-226.565	640.19	-332.68	45.845	627.441	-87.208	32.825	679.073	13.244	-331.636	687.118	-339.294	-305.62	131.74	-88.418	-0.001354	0.000259	0.003232	-0.089764	-0.035701	0.121918
-353.941	113.291	-148.924	-264.309	112.18	234.438	-179.227	83.609	257.249	-226.524	640.175	-332.693	45.973	626.914	-87.093	33.536	678.42	13.293	-331.615	687.157	-339.24	-305.601	131.716	-88.425	-0.005725	0.00558	0.005957	-0.082825	-0.025804	0.138056
-353.939	113.284	-148.91	-264.275	112.175	234.427	-179.232	83.621	257.244	-226.644	640.027	-331.825	46.214	627.848	-85.847	34.311	677.787	13.416	-331.591	687.181	-339.166	-305.601	131.76	-88.436	-0.001433	0.00195	0.003794	-0.074517	-0.025406	0.146195
-353.941	113.29	-148.905	-264.23	112.177	234.449	-179.186	83.607	257.276	-227.188	639.645	-329.812	46.52	627.274	-85.761	35.158	677.154	13.613	-331.588	687.255	-339.101	-305.6	131.743	-88.449	-0.000727	0.004303	0.010262	-0.057847	-0.0403	0.154544
-353.947	113.292	-148.917	-264.242	112.201	234.446	-179.183	83.598	257.257	-227.532	639.388	-328.717	46.677	626.757	-85.586	36.111	676.499	13.898	-331.582	687.272	-339.042	-305.593	131.725	-88.415	0.002961	0.004953	0.002255	-0.062395	-0.05167	0.171943
-353.948	113.291	-148.887	-264.234	112.234	234.455	-179.167	83.613	257.261	-227.608	639.342	-328.408	46.846	626.195	-85.389	37.154	675.85	14.193	-331.585	687.308	-338.955	-305.612	131.704	-88.378	0.004396	0.006515	0.003636	-0.071227	-0.05358	0.175955
-353.925	113.309	-148.89	-264.192	112.235	234.447	-179.146	83.61	257.265	-227.561	639.332	-328.328	47.009	625.66	-85.15	38.264	675.196	14.539	-331.521	687.323	-338.927	-305.606	131.729	-88.378	0.005657	-0.001381	0.002185	-0.065477	-0.050366	0.171411
-353.94	113.32	-148.885	-264.193	112.256	234.457	-179.129	83.601	257.256	-227.594	639.305	-328.126	47.309	625.095	-84.906	39.43	674.536	14.915	-331.511	687.347	-338.856	-305.615	131.714	-88.466	0.008017	0.012529	-0.001701	-0.059135	-0.039106	0.170308
-353.941	113.315	-148.886	-264.141	112.26	234.465	-179.105	83.591	257.274	-227.59	639.286	-328.016	47.543	624.557	-84.657	40.663	673.864	15.305	-331.489	687.38	-338.804	-305.639	131.712	-88.429	0.011384	0.003903	-0.002454	-0.066823	-0.039429	0.154759
-353.924	113.314	-148.879	-264.133	112.28	234.457	-179.089	83.6	257.253	-227.566	639.24	-327.934	47.711	623.893	-84.307	41.96	673.181	15.737	-331.46	687.408	-338.744	-305.603	131.713	-88.423	0.00394	0.004948	0.002421	-0.062544	-0.051044	0.138176
-353.933	113.324	-148.873	-264.117	112.296	234.472	-179.057	83.606	257.274	-227.555	639.254	-327.859	48.034	623.309	-84.0	43.304	672.492	16.18	-331.489	687.474	-338.652	-305.588	131.707	-88.419	0.002438	0.007152	-0.000601	-0.070585	-0.05031	0.114532
-353.923	113.317	-148.867	-264.101	112.292	234.485	-179.045	83.63	257.273	-227.522	639.239	-327.768	48.271	622.717	-83.568	44.664	671.804	16.607	-331.452	687.5	-338.613	-305.594	131.698	-88.424	0.000134	0.007132	0.001516	-0.074025	-0.058231	0.092313
-353.921	113.328	-148.847	-264.082	112.301	234.466	-179.035	83.614	257.271	-227.531	639.261	-327.695	48.599	622.106	-83.096	46.09	671.132	17.074	-331.466	687.566	-338.535	-305.585	131.694	-88.408	-0.002255	-0.000957	0.000851	-0.067272	-0.052973	0.073795
-353.921	113.324	-148.842	-264.102	112.314	234.475	-179.027	83.61	257.274	-227.714	639.424	-327.356	48.981	621.56	-82.691	47.602	670.473	17.553	-331.461	687.575	-338.452	-305.596	131.669	-88.395	-0.000964	-0.005494	0.002362	-0.066087	-0.048391	0.07184
-353.917	113.326	-148.837	-264.093	112.306	234.468	-179.029	83.609	257.268	-227.767	639.699	-327.134	49.271	620.937	-82.127	49.145	669.852	18.0	-331.432	687.617	-338.42	-305.596	131.702	-88.379	-0.006227	-0.009847	-0.000595	-0.056053	-0.035331	0.061612
-353.92	113.334	-148.849	-264.093	112.287	234.488	-179.042	83.618	257.275	-227.822	639.954	-327.024	49.628	620.321	-81.645	50.746	669.216	18.462	-331.439	687.786	-338.35	-305.575	131.698	-88.356	-0.002671	-0.007653	0.00369	-0.054357	-0.029743	0.064541
-353.932	113.348	-148.861	-264.132	112.299	234.474	-179.062	83.596	257.267	-227.877	640.089	-326.893	49.919	619.7	-81.079	52.364	668.545	18.748	-331.434	687.948	-338.307	-305.617	131.675	-88.369	-0.004287	-0.007473	0.005711	-0.056763	-0.026552	0.061001
-353.917	113.35	-148.838	-264.13	112.298	234.471	-179.081	83.608	257.272	-227.897	640.101	-326.808	50.387	619.038	-80.54	54.058	667.896	19.2	-331.629	688.071	-338.032	-305.589	131.714	-88.35	-0.000782	-0.005161	0.009187	-0.053187	-0.02044	0.061857
-353.932	113.371	-148.831	-264.137	112.249	234.474	-179.095	83.597	257.277	-227.873	640.048	-326.781	50.704	618.386	-79.895	55.771	667.255	19.647	-331.653	688.056	-337.971	-305.615	131.736	-88.333	-0.002299	-0.001368	0.008272	-0.043845	-0.010676	0.051004
-353.923	113.376	-148.824	-264.146	112.271	234.468	-179.094	83.611	257.274	-227.891	640.012	-326.721	51.308	617.735	-79.368	57.488	666.613	20.077	-331.661	688.098	-337.914	-305.581	131.746	-88.332	-0.0002	0.000177	0.008883	-0.034349	-0.013894	0.04722
-353.934	113.385	-148.822	-264.176	112.27	234.462	-179.13	83.594	257.264	-227.905	639.992	-326.658	51.882	617.068	-78.778	59.208	665.936	20.547	-331.667	688.124	-337.866	-305.6	131.738	-88.338	0.001902	0.000957	0.01099	-0.032584	-0.011993	0.038708
-353.939	113.386	-148.818	-264.192	112.28	234.445	-179.128	83.598	257.259	-227.901	640.003	-326.617	52.501	616.375	-78.19	60.968	665.234	21.006	-331.656	688.153	-337.791	-305.614	131.72	-88.327	-0.001001	0.004014	0.009409	-0.033117	-0.015885	0.033725
-353.93	113.396	-148.825	-264.162	112.239	234.446	-179.116	83.598	257.26	-227.927	640.036	-326.519	53.145	615.744	-77.613	62.75	664.517	21.448	-331.627	688.142	-337.764	-305.611	131.716	-88.326	-0.005429	0.00192	0.004253	-0.037902	-0.024891	0.02569
-353.933	113.399	-148.825	-264.177	112.246	234.445	-179.127	83.62	257.267	-227.916	640.075	-326.509	53.793	615.061	-77.017	64.61	663.854	21.897	-331.608	688.136	-337.755	-305.612	131.732	-88.323	-0.002539	0.004143	0.006375	-0.03925	-0.028729	0.027774
-353.946	113.408	-148.824	-264.172	112.246	234.434	-179.118	83.622	257.268	-227.93	640.083	-326.476	54.389	614.421	-76.282	66.541	663.242	22.293	-331.593	688.144	-337.729	-305.6	131.721	-88.328	-0.001802	0.005602	-0.002442	-0.035588	-0.021486	0.031884
-353.94	113.407	-148.795	-264.189	112.247	234.422	-179.123	83.622	257.278	-227.93	640.106	-326.442	55.162	613.746	-75.682	68.563	662.693	22.689	-331.577	688.138	-337.702	-305.601	131.746	-88.291	-0.006302	0.002896	-0.004742	-0.035201	-0.006968	0.024123
-353.942	113.402	-148.81	-264.164	112.209	234.424	-179.121	83.633	257.262	-227.922	640.095	-326.404	55.333	612.679	-75.279	70.615	662.193	23.016	-331.576	688.154	-337.686	-305.612	131.73	-88.291	-0.000546	0.004445	-0.001919	-0.030651	-0.002497	0.0272
-353.941	113.414	-148.802	-264.186	112.25	234.413	-179.117	83.654	257.269	-227.909	640.101	-326.428	55.681	612.101	-74.963	72.727	661.723	23.373	-331.546	688.158	-337.648	-305.592	131.708	-88.311	-0.007139	0.008299	-0.002117	-0.025856	-0.00801	0.023417
-353.931	113.412	-148.793	-264.207	112.248	234.402	-179.133	83.633	257.273	-227.839	640.18	-326.36	56.626	610.965	-74.17	74.858	661.237	23.683	-331.507	688.162	-337.655	-305.587	131.723	-88.287	-0.004244	0.009024	-0.00214	-0.016657	-0.00533	0.023022
-353.918	113.419	-148.78	-264.191	112.227	234.396	-179.132	83.655	257.253	-227.757	640.351	-326.368	57.654	609.998	-73.414	76.955	660.676	24.034	-331.466	688.185	-337.614	-305.588	131.697	-88.287	-0.003645	0.006852	0.007338	-0.009106	0.007649	0.032533
-353.92	113.415	-148.802	-264.196	112.242	234.391	-179.137	83.627	257.265	-227.778	640.363	-326.35	58.714	609.156	-72.755	79.081	660.072	24.327	-331.44	688.234	-337.593	-305.608	131.677	-88.313	-0.003756	0.000966	0.008883	-0.00819	0.026179	0.027398
-353.914	113.414	-148.784	-264.186	112.235	234.388	-179.137	83.635	257.259	-227.79	640.339	-326.35	59.772	608.331	-72.248	81.248	659.359	24.615	-331.415	688.265	-337.578	-305.578	131.678	-88.31	-0.000854	0.000764	0.008949	-0.019802	0.016051	0.022807
-353.904	113.411	-148.793	-264.175	112.213	234.377	-179.134	83.641	257.265	-227.787	640.377	-326.318	60.77	607.691	-71.629	83.421	658.647	24.863	-331.396	688.317	-337.535	-305.577	131.666	-88.283	0.000454	-0.006656	0.006136	-0.036529	-0.012621	0.002311
-353.908	113.408	-148.786	-264.173	112.204	234.377	-179.136	83.648	257.251	-227.764	640.467	-326.321	61.709	606.886	-71.127	85.675	657.936	25.114	-331.395	688.359	-337.508	-305.559	131.704	-88.288	0.001152	-0.005238	0.004629	-0.057546	-0.023816	-0.000869
-353.908	113.415	-148.786	-264.204	112.224	234.354	-179.113	83.658	257.264	-227.749	640.514	-326.303	62.728	606.115	-70.517	88.002	657.267	25.317	-331.388	688.399	-337.49	-305.562	131.719	-88.272	0.004592	-0.011802	0.00172	-0.063199	-0.041262	0.007743
-353.907	113.424	-148.793	-264.19	112.229	234.364	-179.12	83.661	257.256	-227.749	640.594	-326.301	63.745	605.287	-69.951	90.396	656.613	25.451	-331.401	688.441	-337.464	-305.539	131.716	-88.27	0.000278	-0.002074	0.002905	-0.06746	-0.04812	0.010749
-353.919	113.426	-148.804	-264.172	112.204	234.368	-179.13	83.663	257.266	-227.766	640.649	-326.271	64.761	604.553	-69.335	92.846	656.046	25.554	-331.415	688.478	-337.402	-305.579	131.702	-88.301	-0.003433	0.001138	0.004142	-0.060405	-0.044466	-0.008308
-353.916	113.429	-148.8	-264.207	112.239	234.357	-179.128	83.657	257.259	-227.769	640.707	-326.247	65.765	603.875	-68.648	95.323	655.506	25.625	-331.439	688.514	-337.362	-305.589	131.689	-88.31	-0.004793	0.010771	0.000265	-0.032316	-0.008738	0.017419
-353.92	113.43	-148.807	-264.194	112.21	234.343	-179.149	83.661	257.256	-227.787	640.733	-326.225	66.951	603.217	-67.959	97.871	655.001	25.683	-331.444	688.556	-337.324	-305.569	131.722	-88.287	-0.002014	0.007938	0.000215	-0.0039	0.030007	0.026179
-353.922	113.438	-148.787	-264.216	112.244	234.351	-179.138	83.672	257.265	-227.823	640.745	-326.25	68.122	602.514	-67.39	100.469	654.435	25.769	-331.501	688.602	-337.274	-305.577	131.715	-88.286	-0.00285	0.005123	-0.001293	0.006201	0.066825	0.023866
-353.925	113.438	-148.799	-264.184	112.202	234.367	-179.138	83.681	257.276	-227.875	640.784	-326.229	69.212	602.216	-66.522	103.092	653.836	25.777	-331.515	688.637	-337.255	-305.565	131.76	-88.256	-0.002917	0.004419	-0.001332	-0.012045	0.06881	0.016954
-353.927	113.455	-148.798	-264.199	112.225	234.346	-179.156	83.693	257.264	-227.906	640.782	-326.221	70.621	601.671	-66.124	105.756	653.125	25.784	-331.546	688.667	-337.209	-305.606	131.733	-88.299	-0.005049	0.009548	0.001502	-0.020297	0.049827	0.014331
-353.932	113.466	-148.789	-264.215	112.221	234.352	-179.156	83.672	257.257	-227.949	640.796	-326.223	71.931	601.08	-65.827	108.474	652.284	25.607	-331.728	688.798	-336.991	-305.601	131.761	-88.277	0.001454	0.006488	0.003061	-0.03266	0.031185	0.020464
-353.937	113.489	-148.782	-264.223	112.229	234.341	-179.152	83.688	257.282	-227.987	640.822	-326.225	73.341	600.478	-65.529	111.265	651.48	25.486	-331.771	688.82	-336.969	-305.604	131.776	-88.255	-3e-06	0.007994	0.005935	-0.045965	0.015211	0.021405
-353.979	113.503	-148.779	-264.217	112.224	234.352	-179.164	83.691	257.263	-228.017	640.836	-326.231	74.831	599.928	-65.36	114.209	650.635	25.225	-331.797	688.816	-336.961	-305.643	131.77	-88.288	-0.001401	0.010934	0.005897	-0.056501	-0.010318	0.006981
-353.973	113.523	-148.778	-264.233	112.218	234.355	-179.176	83.681	257.27	-228.048	640.839	-326.24	76.249	599.338	-65.066	117.01	649.93	24.949	-331.851	688.837	-336.919	-305.646	131.78	-88.244	0.004478	0.014518	0.010273	-0.064987	-0.026899	-0.01137
-353.981	113.537	-148.78	-264.237	112.202	234.355	-179.178	83.692	257.267	-228.08	640.833	-326.24	77.718	598.745	-64.894	119.821	649.331	24.617	-331.87	688.845	-336.882	-305.636	131.809	-88.217	0.005973	0.015957	0.011006	-0.060097	-0.025446	-0.026469
-354.002	113.556	-148.765	-264.254	112.219	234.333	-179.181	83.705	257.26	-228.108	640.83	-326.256	79.451	598.126	-64.693	122.658	648.747	24.22	-331.899	688.852	-336.867	-305.65	131.795	-88.277	0.007461	0.013656	0.005263	-0.056607	-0.021688	-0.011081
-354.003	113.563	-148.766	-264.285	112.219	234.316	-179.207	83.703	257.276	-228.143	640.854	-326.249	81.125	597.515	-64.61	125.488	648.201	23.801	-331.905	688.846	-336.852	-305.639	131.819	-88.227	0.004629	0.015863	0.005989	-0.045666	-0.000868	0.012835
-354.011	113.573	-148.759	-264.267	112.221	234.319	-179.214	83.716	257.265	-228.187	640.885	-326.227	83.02	596.849	-64.604	128.351	647.66	23.36	-331.942	688.881	-336.814	-305.661	131.804	-88.232	0.003205	0.014342	0.005334	-0.040964	0.044981	0.001788
-354.011	113.589	-148.762	-264.255	112.184	234.309	-179.212	83.698	257.256	-228.241	640.894	-326.197	84.921	596.25	-64.673	131.257	647.089	22.847	-331.958	688.854	-336.796	-305.671	131.831	-88.202	0.006098	0.008366	0.004049	-0.031161	0.09388	0.007264
-354.02	113.596	-148.746	-264.276	112.179	234.31	-179.217	83.708	257.262	-228.281	640.918	-326.186	86.722	595.653	-64.786	134.186	646.486	22.276	-332.01	688.884	-336.756	-305.695	131.819	-88.201	0.004665	0.006131	0.00633	-0.019928	0.109779	0.00855
-354.028	113.605	-148.732	-264.291	112.164	234.306	-179.21	83.727	257.26	-228.328	640.945	-326.145	88.628	595.01	-64.964	137.123	645.887	21.647	-332.035	688.84	-336.747	-305.666	131.833	-88.191	0.00615	0.003826	0.007178	-0.031718	0.096246	-0.005868
-354.031	113.623	-148.748	-264.312	112.188	234.288	-179.224	83.724	257.239	-228.377	640.943	-326.166	90.562	594.454	-65.187	140.085	645.258	20.939	-332.18	688.933	-336.574	-305.665	131.834	-88.196	0.006285	0.000805	0.00738	-0.039959	0.057442	-0.010185
-354.022	113.63	-148.742	-264.304	112.155	234.284	-179.225	83.726	257.251	-228.434	640.959	-326.142	92.367	593.974	-65.472	143.039	644.678	20.175	-332.234	688.936	-336.509	-305.671	131.825	-88.209	-2.4e-05	0.005989	0.006661	-0.053649	0.013959	-0.025411
-354.026	113.623	-148.729	-264.32	112.182	234.276	-179.231	83.725	257.225	-228.505	640.937	-326.159	94.351	593.474	-65.889	145.984	644.117	19.365	-332.291	688.968	-336.461	-305.659	131.824	-88.197	0.00597	0.004328	0.006162	-0.057518	-0.017632	-0.031372
-354.02	113.638	-148.739	-264.314	112.164	234.257	-179.234	83.733	257.238	-228.562	640.933	-326.134	96.44	593.043	-66.297	148.929	643.582	18.489	-332.356	688.965	-336.405	-305.647	131.799	-88.192	-0.000439	0.003588	0.00481	-0.060408	-0.031808	-0.028085
-354.023	113.632	-148.726	-264.323	112.167	234.256	-179.239	83.728	257.232	-228.615	640.909	-326.137	98.574	592.641	-66.854	151.864	643.086	17.557	-332.421	688.986	-336.347	-305.653	131.814	-88.197	-0.00037	-0.001635	0.000628	-0.056897	-0.003996	-0.026992
-354.005	113.645	-148.703	-264.316	112.171	234.261	-179.245	83.738	257.238	-228.658	640.895	-326.145	100.801	592.152	-67.483	154.805	642.645	16.626	-332.464	688.975	-336.297	-305.647	131.798	-88.155	-0.003213	-0.000135	0.00868	-0.045925	0.009488	-0.027034
-354.002	113.663	-148.713	-264.328	112.162	234.246	-179.237	83.723	257.25	-228.726	640.901	-326.121	103.268	591.772	-68.323	157.729	642.231	15.572	-332.53	688.987	-336.226	-305.627	131.782	-88.15	-0.002509	-0.008973	0.003045	-0.03652	0.023	-0.015141
-354.003	113.665	-148.683	-264.304	112.123	234.251	-179.253	83.734	257.237	-228.775	640.886	-326.125	105.923	591.47	-69.276	160.681	641.881	14.447	-332.542	688.928	-336.201	-305.626	131.793	-88.109	-0.000904	-0.006837	0.00092	-0.036318	0.048582	-0.007851
-354.004	113.683	-148.686	-264.312	112.141	234.242	-179.246	83.744	257.254	-228.826	640.891	-326.095	108.55	591.224	-70.275	163.631	641.53	13.271	-332.592	688.909	-336.162	-305.638	131.773	-88.133	-0.004496	-0.006702	0.0031	-0.043524	0.06932	-0.017252
-354.002	113.677	-148.656	-264.326	112.149	234.241	-179.257	83.737	257.231	-228.876	640.88	-326.039	111.33	591.084	-71.254	166.692	641.25	11.972	-332.623	688.904	-336.106	-305.595	131.809	-88.092	-0.004381	-0.007359	-0.003418	-0.047109	0.056978	-0.016931
-354.011	113.692	-148.653	-264.315	112.161	234.246	-179.253	83.759	257.256	-228.931	640.886	-326.038	114.1	590.855	-72.527	169.737	640.974	10.513	-332.677	688.869	-336.054	-305.629	131.782	-88.146	5.5e-05	-0.00586	0.000249	-0.052428	0.034186	-0.034027
-354.003	113.698	-148.642	-264.37	112.162	234.244	-179.255	83.741	257.241	-228.972	640.869	-325.997	117.014	590.671	-74.033	172.841	640.752	8.97	-332.713	688.859	-335.992	-305.616	131.791	-88.128	-0.005695	-0.004938	0.003139	-0.051026	0.026675	-0.037901
-354.004	113.72	-148.612	-264.376	112.16	234.254	-179.284	83.728	257.23	-229.012	640.855	-325.968	119.967	590.599	-75.618	175.934	640.543	7.339	-332.742	688.847	-335.956	-305.604	131.806	-88.077	0.000923	-0.007235	-0.001843	-0.041049	0.02279	-0.036675
-354.009	113.721	-148.6	-264.368	112.156	234.266	-179.291	83.717	257.245	-229.043	640.851	-325.951	123.012	590.474	-77.392	179.045	640.347	5.58	-332.774	688.829	-335.9	-305.595	131.804	-88.053	0.002444	-0.005729	0.000351	-0.050372	0.001309	-0.043413
-354.018	113.754	-148.608	-264.415	112.157	234.274	-179.295	83.715	257.248	-229.064	640.839	-325.902	126.047	590.457	-79.311	182.156	640.204	3.76	-332.778	688.805	-335.846	-305.587	131.799	-88.024	0.005347	-0.007137	0.004028	-0.052676	0.005994	-0.039389
-354.011	113.772	-148.604	-264.386	112.14	234.269	-179.307	83.725	257.263	-229.066	640.812	-325.848	129.106	590.411	-81.331	185.27	640.052	1.827	-332.782	688.779	-335.837	-305.623	131.785	-88.037	0.006095	-0.005609	0.005449	-0.054052	0.017718	-0.035554
-354.0	113.789	-148.583	-264.41	112.132	234.265	-179.32	83.732	257.262	-229.084	640.798	-325.838	132.151	590.392	-83.512	188.396	639.905	-0.292	-332.787	688.756	-335.817	-305.613	131.831	-88.075	0.006874	-0.005653	-0.000359	-0.08277	0.016092	-0.027708
-354.009	113.808	-148.575	-264.439	112.153	234.268	-179.326	83.745	257.256	-229.089	640.787	-325.831	135.211	590.356	-85.873	191.558	639.779	-2.51	-332.779	688.734	-335.778	-305.907	131.779	-88.51	0.00389	-0.007722	-0.001134	-0.093625	0.022305	-0.024306
-354.005	113.821	-148.561	-264.446	112.147	234.276	-179.352	83.745	257.266	-229.091	640.758	-325.8	138.182	590.335	-88.375	194.684	639.683	-4.872	-332.774	688.712	-335.758	-305.934	131.788	-88.486	0.00013	-0.011168	-0.003403	-0.0994	0.027769	-0.017582
-354.025	113.838	-148.542	-264.44	112.149	234.271	-179.373	83.766	257.27	-229.068	640.76	-325.771	141.226	590.347	-90.924	197.848	639.606	-7.35	-332.769	688.706	-335.738	-305.93	131.836	-88.45	-0.005862	-0.013081	0.001555	-0.098004	0.041195	-0.008101
-354.047	113.879	-148.567	-264.463	112.136	234.267	-179.376	83.743	257.245	-229.057	640.749	-325.725	144.205	590.452	-93.54	200.834	639.357	-10.193	-332.765	688.703	-335.723	-305.96	131.859	-88.452	-0.013992	-0.015074	0.002176	-0.104863	0.046402	-0.017872
-354.055	113.915	-148.558	-264.492	112.129	234.258	-179.398	83.745	257.28	-229.038	640.74	-325.723	147.198	590.534	-96.266	203.978	639.323	-12.883	-332.731	688.676	-335.705	-305.983	131.871	-88.461	-0.015616	-0.017814	0.011585	-0.101667	0.048548	-0.022481
-354.046	113.953	-148.565	-264.513	112.132	234.27	-179.42	83.739	257.265	-229.018	640.743	-325.699	150.136	590.675	-99.109	207.109	639.306	-15.688	-332.693	688.66	-335.718	-305.991	131.907	-88.44	-0.016385	-0.01846	0.007881	-0.096202	0.06506	-0.030206
-354.076	113.972	-148.569	-264.53	112.142	234.246	-179.42	83.726	257.261	-228.986	640.729	-325.703	152.915	590.783	-101.977	210.172	639.302	-18.649	-332.679	688.647	-335.706	-306.007	131.92	-88.418	-0.012006	-0.014683	0.00996	-0.089282	0.074813	-0.040823
-354.069	113.997	-148.542	-264.529	112.153	234.244	-179.43	83.732	257.26	-228.986	640.723	-325.698	155.383	590.855	-104.636	213.265	639.314	-21.65	-332.83	688.772	-335.525	-306.005	131.944	-88.397	-0.011219	-0.009337	0.010528	-0.082626	0.078541	-0.042762
-354.079	114.027	-148.562	-264.517	112.135	234.237	-179.433	83.741	257.249	-228.977	640.714	-325.7	158.371	591.535	-107.408	216.383	639.385	-24.759	-332.808	688.753	-335.538	-306.009	131.947	-88.408	-0.001813	-0.012122	0.004664	-0.078243	0.071109	-0.041181
-354.089	114.042	-148.569	-264.495	112.135	234.266	-179.433	83.727	257.246	-228.959	640.698	-325.701	161.529	591.925	-111.201	219.509	639.418	-28.01	-332.799	688.724	-335.552	-306.034	131.953	-88.403	0.000404	-0.005161	0.005126	-0.084763	0.067769	-0.042084
-354.088	114.052	-148.562	-264.488	112.137	234.244	-179.419	83.746	257.266	-228.952	640.693	-325.73	164.094	592.298	-114.331	222.58	639.458	-31.44	-332.817	688.727	-335.552	-306.026	131.977	-88.424	-0.000398	-0.00244	0.009961	-0.09154	0.078831	-0.040102
-354.095	114.047	-148.565	-264.467	112.133	234.241	-179.387	83.738	257.267	-228.956	640.665	-325.699	166.626	592.689	-117.498	225.612	639.567	-34.895	-332.807	688.679	-335.586	-305.992	131.992	-88.396	-0.001798	0.00378	0.003131	-0.085877	0.087636	-0.047423
-354.096	114.081	-148.567	-264.454	112.148	234.24	-179.37	83.735	257.249	-228.959	640.647	-325.733	169.052	593.139	-120.716	228.697	639.757	-38.366	-332.813	688.649	-335.583	-306.01	131.992	-88.405	0.000221	-0.000351	-0.003556	-0.079972	0.080486	-0.042595
-354.081	114.073	-148.538	-264.404	112.144	234.258	-179.355	83.746	257.25	-228.967	640.624	-325.758	171.547	593.609	-123.972	231.601	639.867	-42.262	-332.816	688.64	-335.573	-306.022	131.966	-88.411	0.000796	-0.002378	-0.010992	-0.074046	0.055872	-0.049425
-354.102	114.087	-148.529	-264.432	112.17	234.242	-179.327	83.747	257.259	-228.973	640.599	-325.763	173.966	594.156	-127.27	234.612	640.119	-45.805	-332.799	688.568	-335.595	-306.022	131.977	-88.369	0.001937	-0.003469	-0.001053	-0.064786	0.049433	-0.054794
-354.11	114.132	-148.543	-264.366	112.164	234.256	-179.307	83.747	257.268	-229.005	640.581	-325.798	176.404	594.718	-130.526	237.628	640.463	-49.365	-332.818	688.559	-335.628	-306.028	131.988	-88.359	-0.004899	-0.003048	0.003716	-0.06508	0.045743	-0.063269
-354.111	114.134	-148.519	-264.34	112.208	234.259	-179.289	83.755	257.265	-229.052	640.571	-325.801	178.846	595.346	-133.847	240.625	640.832	-52.95	-332.844	688.543	-335.609	-305.97	132.063	-88.292	-0.004251	4.4e-05	-0.003796	-0.066665	0.05509	-0.055896
-354.125	114.164	-148.505	-264.34	112.221	234.253	-179.274	83.763	257.273	-229.101	640.571	-325.817	181.294	595.977	-137.134	243.61	641.275	-56.523	-332.856	688.507	-335.629	-305.948	132.065	-88.225	-0.005154	0.001088	0.00181	-0.057242	0.078083	-0.057073
-354.141	114.197	-148.502	-264.268	112.225	234.268	-179.233	83.759	257.267	-229.13	640.569	-325.824	183.745	596.739	-140.461	246.581	641.815	-60.112	-332.91	688.516	-335.62	-305.96	132.074	-88.141	-0.011023	0.003594	0.001606	-0.058107	0.084869	-0.06119
-354.139	114.239	-148.469	-264.237	112.252	234.273	-179.19	83.763	257.26	-229.194	640.567	-325.83	186.17	597.403	-143.929	249.534	642.393	-63.708	-332.955	688.505	-335.627	-305.958	132.129	-88.065	0.001373	0.00648	0.002308	-0.060798	0.071867	-0.059908
-354.157	114.275	-148.461	-264.22	112.266	234.282	-179.157	83.773	257.268	-229.236	640.6	-325.877	188.675	598.199	-147.236	252.466	643.039	-67.337	-333.009	688.515	-335.63	-305.97	132.16	-88.023	0.000646	0.009605	0.001431	-0.063078	0.047889	-0.05757
-354.19	114.303	-148.451	-264.184	112.287	234.278	-179.14	83.773	257.285	-229.298	640.622	-325.903	191.259	599.088	-150.344	255.34	643.72	-70.973	-333.057	688.525	-335.625	-305.932	132.193	-87.937	0.000563	0.010659	0.003437	-0.066898	0.03117	-0.062465
-354.189	114.347	-148.431	-264.162	112.302	234.275	-179.126	83.762	257.268	-229.364	640.635	-325.958	193.513	600.003	-153.552	258.191	644.459	-74.584	-333.12	688.551	-335.638	-305.937	132.229	-87.88	0.004148	0.013156	0.002508	-0.055848	0.011684	-0.063357
-354.191	114.378	-148.426	-264.137	112.31	234.304	-179.115	83.767	257.281	-229.427	640.646	-325.978	195.879	600.917	-156.767	261.042	645.279	-78.212	-333.177	688.571	-335.631	-305.94	132.264	-87.846	0.007724	0.020048	0.006587	-0.048932	-0.010455	-0.057267
-354.202	114.414	-148.417	-264.159	112.327	234.3	-179.094	83.761	257.279	-229.507	640.684	-326.039	198.127	601.903	-159.996	263.838	646.19	-81.867	-333.301	688.636	-335.592	-305.924	132.287	-87.765	0.004055	0.02469	0.003431	-0.043088	-0.021555	-0.047714
-354.227	114.438	-148.398	-264.154	112.352	234.292	-179.087	83.774	257.278	-229.595	640.727	-326.126	200.075	602.928	-163.222	266.662	647.197	-85.526	-333.393	688.651	-335.572	-305.897	132.33	-87.668	0.006966	0.029846	0.006955	-0.040735	-0.025472	-0.050597
-354.233	114.478	-148.402	-264.151	112.351	234.309	-179.078	83.772	257.281	-229.716	640.756	-326.207	202.238	603.965	-166.327	269.403	648.225	-89.225	-333.524	688.682	-335.521	-305.929	132.338	-87.69	-0.001175	0.024922	0.008375	-0.040821	-0.038053	-0.049439
-354.255	114.499	-148.374	-264.137	112.322	234.316	-179.085	83.763	257.271	-229.846	640.743	-326.24	204.685	605.042	-169.637	272.101	649.345	-92.883	-333.639	688.697	-335.506	-305.941	132.343	-87.694	-0.004667	0.032262	0.010481	-0.040957	-0.033125	-0.052313
-354.263	114.559	-148.356	-264.116	112.345	234.288	-179.084	83.785	257.279	-229.991	640.735	-326.284	207.349	606.095	-173.008	274.77	650.538	-96.545	-333.922	688.823	-335.28	-305.958	132.388	-87.638	-0.003325	0.023486	0.012087	-0.041516	-0.033827	-0.048829
-354.275	114.593	-148.346	-264.124	112.343	234.288	-179.079	83.777	257.268	-230.119	640.728	-326.342	209.518	607.212	-176.185	277.395	651.715	-100.208	-334.087	688.834	-335.221	-305.991	132.395	-87.645	0.003342	0.023276	0.008588	-0.03647	-0.031403	-0.049631
-354.288	114.622	-148.337	-264.103	112.358	234.275	-179.05	83.781	257.28	-230.289	640.71	-326.38	211.603	608.286	-179.222	279.98	652.933	-103.839	-334.034	688.64	-335.299	-306.008	132.444	-87.629	0.005681	0.02389	0.002132	-0.03103	-0.036687	-0.049886
-354.304	114.654	-148.316	-264.095	112.356	234.262	-179.04	83.788	257.249	-230.426	640.674	-326.47	213.273	609.217	-181.77	282.53	654.168	-107.417	-334.191	688.639	-335.224	-305.994	132.461	-87.585	0.004397	0.02983	0.0094	-0.033058	-0.041006	-0.054816
-354.326	114.69	-148.3	-264.079	112.353	234.26	-179.032	83.778	257.244	-230.628	640.637	-326.557	214.664	609.265	-185.206	285.01	655.434	-110.965	-334.335	688.619	-335.203	-306.029	132.501	-87.576	-0.000457	0.03281	0.008741	-0.032611	-0.037839	-0.054585
-354.345	114.726	-148.277	-264.075	112.367	234.257	-179.019	83.783	257.248	-230.812	640.605	-326.652	218.084	611.895	-188.761	287.436	656.731	-114.424	-334.485	688.605	-335.158	-306.052	132.521	-87.592	-0.006762	0.036455	0.011752	-0.054356	-0.044823	-0.078061
-354.354	114.752	-148.259	-264.05	112.368	234.251	-179.017	83.766	257.238	-230.95	640.576	-326.696	219.771	613.127	-191.305	289.773	658.038	-117.86	-334.667	688.598	-335.118	-306.07	132.535	-87.554	-0.005782	0.032595	0.014293	-0.067245	-0.037614	-0.062076
-354.366	114.784	-148.24	-264.028	112.37	234.234	-178.996	83.78	257.229	-231.107	640.555	-326.768	221.162	614.376	-194.003	292.07	659.366	-121.195	-334.838	688.601	-335.062	-306.067	132.57	-87.504	-0.002466	0.032146	0.011813	-0.06398	-0.020884	-0.060883
-354.368	114.803	-148.204	-264.018	112.368	234.238	-178.962	83.789	257.235	-231.297	640.547	-326.82	222.797	615.445	-196.812	294.306	660.727	-124.483	-335.031	688.603	-335.029	-306.107	132.584	-87.501	0.003715	0.02799	0.010143	-0.050889	-0.024289	-0.057062
-354.389	114.825	-148.185	-264.019	112.421	234.228	-178.936	83.777	257.229	-231.48	640.555	-326.901	225.024	616.5	-199.881	296.477	662.092	-127.746	-335.214	688.653	-334.974	-306.082	132.623	-87.442	0.01792	0.023702	0.009274	-0.02994	-0.033137	-0.061752
-354.398	114.86	-148.147	-263.965	112.43	234.235	-178.911	83.766	257.214	-231.673	640.563	-326.965	227.539	617.928	-201.961	298.574	663.465	-130.97	-335.394	688.674	-334.921	-306.117	132.647	-87.396	0.005856	0.018466	0.003056	-0.016043	-0.029869	-0.062267
-354.408	114.906	-148.129	-263.925	112.454	234.259	-178.876	83.778	257.213	-231.844	640.574	-327.005	229.21	619.12	-204.614	300.621	664.808	-134.123	-335.553	688.685	-334.874	-306.139	132.649	-87.44	0.011969	0.015267	0.006366	-0.006568	-0.028528	-0.071005
-354.424	114.952	-148.107	-263.881	112.501	234.264	-178.835	83.802	257.225	-232.055	640.579	-327.06	230.861	620.304	-207.156	302.64	666.156	-137.194	-335.756	688.711	-334.809	-306.169	132.699	-87.376	0.004416	0.018071	0.002253	-0.000252	-0.02489	-0.076989
-354.452	114.992	-148.083	-263.802	112.519	234.28	-178.776	83.803	257.246	-232.235	640.602	-327.122	232.482	621.44	-209.711	304.543	667.443	-140.176	-335.944	688.719	-334.74	-306.182	132.721	-87.381	0.000477	0.019352	0.004774	0.005184	-0.040067	-0.084284
-354.487	115.026	-148.074	-263.754	112.553	234.287	-178.735	83.798	257.239	-232.426	640.589	-327.16	234.043	622.557	-212.193	306.396	668.721	-143.08	-336.128	688.711	-334.671	-306.18	132.761	-87.356	0.003858	0.016734	0.005312	0.012519	-0.049991	-0.089122
-354.494	115.079	-148.036	-263.686	112.608	234.315	-178.676	83.815	257.261	-232.622	640.593	-327.232	235.522	623.577	-214.665	308.173	669.971	-145.907	-336.324	688.732	-334.6	-306.222	132.797	-87.316	-0.002957	0.01052	0.003705	0.021887	-0.05469	-0.095388
-354.524	115.129	-147.997	-263.66	112.642	234.306	-178.616	83.845	257.265	-232.812	640.592	-327.274	236.675	624.351	-217.73	309.725	671.04	-148.914	-336.513	688.75	-334.513	-306.245	132.812	-87.294	0.004123	0.005431	0.00224	0.015814	-0.064359	-0.102094
-354.535	115.175	-147.98	-263.585	112.687	234.329	-178.578	83.848	257.266	-232.982	640.597	-327.269	238.423	624.669	-221.439	311.344	672.22	-151.633	-336.729	688.82	-334.432	-306.276	132.848	-87.331	0.009771	0.001075	-0.002892	0.009855	-0.052722	-0.092734
-354.56	115.237	-147.944	-263.542	112.707	234.338	-178.53	83.862	257.265	-233.134	640.61	-327.31	240.012	625.813	-223.44	312.88	673.422	-154.263	-336.871	688.833	-334.357	-306.303	132.89	-87.286	0.004358	-0.004297	0.001264	-0.000179	-0.04176	-0.100985
-354.591	115.283	-147.923	-263.485	112.762	234.355	-178.476	83.868	257.283	-233.288	640.599	-327.389	241.15	627.429	-224.137	314.373	674.566	-156.835	-337.03	688.855	-334.316	-306.284	132.969	-87.191	0.005625	-0.003981	-0.001162	0.000369	-0.036546	-0.101212
-354.612	115.324	-147.904	-263.409	112.779	234.386	-178.53	83.877	257.304	-233.436	640.597	-327.431	242.353	628.471	-225.877	315.712	675.655	-159.275	-337.19	688.868	-334.254	-306.386	133.047	-87.276	0.006888	-0.000644	-0.000768	0.016147	-0.030573	-0.104701
-354.632	115.361	-147.87	-263.319	112.791	234.4	-178.485	83.903	257.322	-233.556	640.6	-327.495	243.223	629.356	-227.544	316.823	676.574	-161.71	-337.295	688.856	-334.23	-306.37	133.074	-87.218	0.001545	-0.000122	-0.004781	0.029856	-0.029595	-0.089347
-354.644	115.399	-147.848	-263.287	112.83	234.402	-178.425	83.902	257.324	-233.651	640.6	-327.522	244.053	630.213	-229.204	318.032	677.596	-163.91	-337.412	688.846	-334.177	-306.612	132.936	-87.63	0.004741	-0.003296	0.004367	0.048607	-0.032401	-0.103422
-354.649	115.432	-147.838	-263.207	112.847	234.441	-178.372	83.898	257.337	-233.758	640.583	-327.573	245.258	631.135	-230.522	319.135	678.525	-166.049	-337.515	688.85	-334.155	-306.611	132.94	-87.599	-0.001291	-0.001392	-0.003292	0.050519	-0.03162	-0.116281
-354.663	115.466	-147.804	-263.151	112.881	234.454	-178.352	83.88	257.321	-233.81	640.55	-327.607	245.954	631.915	-232.226	320.183	679.404	-168.106	-337.596	688.817	-334.13	-306.594	132.969	-87.565	0.001915	-0.008346	-0.002061	0.055706	-0.031506	-0.119652
-354.673	115.503	-147.794	-263.102	112.915	234.465	-178.309	83.875	257.316	-233.873	640.487	-327.634	246.655	632.591	-233.829	321.114	680.247	-170.036	-337.664	688.796	-334.108	-306.617	132.982	-87.535	0.003794	-0.007241	-0.000947	0.052609	-0.024721	-0.118155
-354.685	115.529	-147.775	-263.043	112.93	234.487	-178.268	83.89	257.333	-233.912	640.454	-327.653	247.351	633.235	-235.118	321.93	681.048	-171.819	-337.67	688.734	-334.126	-306.644	132.997	-87.545	0.000518	-0.00746	-0.000625	0.041324	-0.031633	-0.115135
-354.702	115.54	-147.756	-262.985	112.94	234.499	-178.213	83.882	257.322	-233.939	640.399	-327.639	247.91	633.831	-236.391	322.656	681.741	-173.497	-337.694	688.663	-334.141	-306.646	133.024	-87.535	0.004567	-0.004827	0.000423	0.036628	-0.028958	-0.119689
-354.71	115.581	-147.734	-262.932	112.969	234.506	-178.177	83.884	257.329	-233.947	640.337	-327.615	248.372	634.305	-237.433	323.289	682.386	-174.99	-337.707	688.601	-334.163	-306.62	133.03	-87.529	-0.000205	-0.002743	0.003552	0.031776	-0.028357	-0.123423
-354.713	115.594	-147.704	-262.9	112.992	234.508	-178.126	83.864	257.316	-233.934	640.283	-327.623	248.717	634.722	-238.354	323.806	682.919	-176.325	-337.704	688.502	-334.198	-306.631	133.045	-87.493	0.001647	0.001384	0.004541	0.046534	-0.038593	-0.130025
-354.719	115.604	-147.71	-262.842	113.018	234.538	-178.068	83.879	257.322	-233.912	640.215	-327.631	248.964	635.049	-239.134	324.214	683.365	-177.561	-337.662	688.393	-334.241	-306.622	133.048	-87.471	-0.000924	0.002608	0.002621	0.06186	-0.039284	-0.134208
-354.712	115.618	-147.698	-262.78	113.044	234.527	-178.041	83.877	257.322	-233.864	640.114	-327.646	249.133	635.336	-239.801	324.431	683.745	-178.382	-337.634	688.263	-334.299	-306.627	133.05	-87.453	0.003762	0.001431	-0.002843	0.07564	-0.046406	-0.138816
-354.724	115.628	-147.675	-262.742	113.046	234.553	-178.008	83.872	257.329	-233.806	640.04	-327.675	249.217	635.555	-240.426	324.678	684.041	-179.26	-337.561	688.157	-334.362	-306.64	133.039	-87.495	0.005491	0.001816	-0.008411	0.07044	-0.044762	-0.142873
-354.715	115.631	-147.673	-262.705	113.055	234.547	-177.986	83.865	257.309	-233.742	639.927	-327.695	249.226	635.732	-240.896	324.769	684.251	-179.951	-337.49	688.055	-334.411	-306.638	133.041	-87.47	0.008462	-0.002755	-0.003803	0.060216	-0.032984	-0.149614
-354.707	115.632	-147.671	-262.664	113.072	234.572	-177.942	83.873	257.333	-233.649	639.841	-327.717	249.172	635.837	-241.285	324.822	684.423	-180.453	-337.392	687.917	-334.497	-306.648	133.023	-87.484	0.01085	0.002825	0.001415	0.057048	-0.029152	-0.148444
-354.708	115.63	-147.672	-262.655	113.096	234.552	-177.925	83.843	257.316	-233.537	639.763	-327.697	249.066	635.869	-241.573	324.782	684.481	-180.791	-337.311	687.839	-334.589	-306.603	133.04	-87.461	0.004396	0.001983	0.003724	0.06286	-0.033296	-0.157396
-354.695	115.644	-147.658	-262.624	113.098	234.569	-177.89	83.836	257.319	-233.452	639.682	-327.71	248.851	635.84	-241.717	324.652	684.451	-181.005	-337.211	687.736	-334.684	-306.601	133.019	-87.439	0.003034	0.000327	0.009747	0.075098	-0.046841	-0.162181
-354.68	115.628	-147.654	-262.603	113.093	234.58	-177.876	83.841	257.319	-233.315	639.603	-327.702	248.574	635.729	-241.728	324.441	684.341	-181.035	-337.14	687.628	-334.777	-306.593	133.021	-87.467	0.002511	0.000738	0.010709	0.085358	-0.045263	-0.174367
-354.692	115.63	-147.667	-262.582	113.112	234.593	-177.867	83.837	257.332	-233.221	639.507	-327.674	248.256	635.562	-241.623	324.159	684.136	-180.922	-337.017	687.505	-334.904	-306.598	133.001	-87.452	0.005694	0.003221	0.007315	0.095562	-0.04069	-0.185503
-354.675	115.635	-147.657	-262.576	113.131	234.589	-177.859	83.812	257.323	-233.109	639.429	-327.705	247.831	635.343	-241.429	323.782	683.829	-180.603	-336.921	687.384	-335.004	-306.573	133.049	-87.437	0.003505	-0.004311	0.007561	0.103966	-0.044757	-0.184089
-354.671	115.627	-147.671	-262.591	113.156	234.583	-177.872	83.799	257.319	-233.016	639.375	-327.738	247.343	635.055	-241.073	323.293	683.412	-180.123	-336.809	687.263	-335.154	-306.582	133.001	-87.458	0.002429	0.008636	0.004641	0.106722	-0.049524	-0.188946
-354.671	115.629	-147.686	-262.568	113.129	234.613	-177.853	83.805	257.322	-232.88	639.272	-327.763	246.826	634.703	-240.613	322.767	682.973	-179.485	-336.697	687.141	-335.296	-306.592	133.01	-87.443	0.002493	0.004846	-0.001039	0.105547	-0.0615	-0.180269
-354.668	115.606	-147.679	-262.574	113.127	234.617	-177.843	83.797	257.318	-232.775	639.213	-327.81	246.195	634.263	-240.046	322.113	682.429	-178.696	-336.607	687.064	-335.428	-306.581	133.007	-87.468	-0.000341	0.006287	0.003375	0.098348	-0.082295	-0.188626
-354.678	115.607	-147.698	-262.551	113.118	234.635	-177.832	83.81	257.337	-232.682	639.153	-327.834	245.501	633.773	-239.278	321.425	681.899	-177.785	-336.497	686.969	-335.574	-306.589	133.014	-87.481	-0.011056	0.010719	0.009234	0.096711	-0.092875	-0.184874
-354.685	115.607	-147.715	-262.578	113.135	234.621	-177.872	83.795	257.321	-232.58	639.096	-327.866	244.717	633.281	-238.472	320.643	681.275	-176.692	-336.408	686.883	-335.687	-306.606	133.031	-87.485	-0.012201	0.012611	0.00876	0.099907	-0.084471	-0.169816
-354.7	115.597	-147.726	-262.607	113.147	234.621	-177.876	83.799	257.35	-232.497	639.053	-327.896	243.894	632.669	-237.555	319.765	680.577	-175.454	-336.323	686.795	-335.824	-306.622	133.018	-87.521	-0.008282	0.011433	0.006195	0.101358	-0.066552	-0.171103
-354.714	115.584	-147.734	-262.606	113.118	234.636	-177.884	83.8	257.341	-232.416	639.004	-327.911	243.033	632.067	-236.558	318.83	679.862	-174.019	-336.249	686.729	-335.964	-306.602	133.03	-87.531	-0.010963	0.008956	0.008692	0.115088	-0.068832	-0.167798
-354.732	115.591	-147.759	-262.607	113.09	234.64	-177.906	83.801	257.319	-232.346	638.972	-327.903	242.202	631.432	-235.486	317.819	679.109	-172.467	-336.166	686.648	-336.093	-306.652	133.033	-87.535	-0.014274	0.010893	0.01114	0.121841	-0.065142	-0.17494
-354.73	115.597	-147.761	-262.631	113.105	234.649	-177.925	83.784	257.335	-232.283	638.949	-327.935	241.378	630.754	-234.441	316.756	678.296	-170.741	-336.099	686.576	-336.225	-306.654	133.05	-87.511	-0.013867	0.011275	0.003461	0.1309	-0.07878	-0.18251
-354.725	115.586	-147.754	-262.671	113.098	234.631	-177.951	83.792	257.335	-232.227	638.92	-327.958	240.6	630.039	-233.303	315.613	677.518	-168.827	-336.059	686.547	-336.357	-306.666	133.054	-87.512	-0.013526	0.012564	0.008841	0.117135	-0.086395	-0.175182
-354.741	115.598	-147.782	-262.717	113.102	234.629	-177.98	83.82	257.358	-232.18	638.893	-327.987	239.932	629.306	-232.282	314.43	676.683	-166.78	-335.988	686.488	-336.504	-306.685	133.087	-87.53	-0.01162	0.014443	0.00554	0.102999	-0.085181	-0.178771
-354.773	115.602	-147.805	-262.735	113.053	234.613	-178.015	83.807	257.341	-232.137	638.887	-328.03	239.26	628.377	-231.405	313.188	675.858	-164.579	-335.93	686.449	-336.643	-306.729	133.088	-87.556	-0.012735	0.009081	0.005241	0.087126	-0.089502	-0.170789
-354.787	115.615	-147.805	-262.768	113.031	234.622	-178.054	83.788	257.324	-232.09	638.865	-328.105	238.663	627.356	-230.375	311.87	674.999	-162.229	-335.869	686.388	-336.788	-306.74	133.111	-87.583	-0.01735	0.009544	0.006363	0.089657	-0.081923	-0.171886
-354.797	115.602	-147.827	-262.823	113.034	234.597	-178.061	83.783	257.319	-232.033	638.868	-328.119	237.975	627.157	-227.933	310.495	674.117	-159.785	-335.852	686.355	-336.927	-306.766	133.101	-87.576	-0.018322	0.008427	0.007565	0.089943	-0.081978	-0.172274
-354.801	115.587	-147.831	-262.835	113.016	234.609	-178.102	83.787	257.33	-231.988	638.838	-328.152	234.81	626.291	-223.424	309.066	673.174	-157.207	-335.778	686.284	-337.072	-306.788	133.116	-87.591	-0.017023	0.006487	0.006681	0.093202	-0.074426	-0.176135
-354.807	115.566	-147.874	-262.881	112.988	234.585	-178.12	83.785	257.32	-231.93	638.821	-328.222	233.155	625.551	-220.501	307.594	672.311	-154.493	-335.751	686.267	-337.23	-306.809	133.114	-87.63	-0.014994	-0.000613	-0.002118	0.097503	-0.077394	-0.165279
-354.793	115.56	-147.863	-262.904	112.976	234.597	-178.172	83.781	257.327	-231.877	638.837	-328.266	231.91	624.737	-218.2	305.967	671.407	-151.609	-335.693	686.241	-337.376	-306.814	133.104	-87.665	-0.01005	-0.003163	-0.006678	0.08501	-0.094621	-0.152433
-354.808	115.526	-147.875	-262.953	112.957	234.585	-178.202	83.786	257.325	-231.828	638.846	-328.362	230.643	623.963	-215.889	304.305	670.559	-148.629	-335.664	686.255	-337.517	-306.785	133.15	-87.65	-0.000691	-0.002032	-0.018617	0.07435	-0.1029	-0.15536
-354.803	115.521	-147.902	-263.0	112.969	234.578	-178.226	83.781	257.319	-231.781	638.86	-328.436	229.295	623.173	-213.493	302.549	669.702	-145.565	-335.615	686.224	-337.666	-306.797	133.123	-87.647	0.007112	6.6e-05	-0.027792	0.066841	-0.102206	-0.141681
-354.807	115.504	-147.921	-263.022	112.938	234.565	-178.251	83.781	257.309	-231.738	638.87	-328.538	227.819	622.312	-210.911	300.718	668.803	-142.462	-335.568	686.19	-337.823	-306.798	133.143	-87.697	0.011165	0.003045	-0.033454	0.068897	-0.114501	-0.13364
-354.815	115.484	-147.954	-263.052	112.913	234.547	-178.282	83.769	257.308	-231.684	638.849	-328.596	226.253	621.487	-208.203	298.83	667.881	-139.235	-335.538	686.171	-337.972	-306.849	133.12	-87.759	0.016725	0.013222	-0.03629	0.055662	-0.104752	-0.129005
-354.819	115.469	-147.996	-263.094	112.895	234.539	-178.313	83.784	257.303	-231.635	638.836	-328.682	224.662	620.645	-205.493	296.821	666.916	-135.93	-335.501	686.137	-338.159	-306.875	133.122	-87.767	0.01309	0.005257	-0.030999	0.052556	-0.089333	-0.132613
-354.825	115.456	-148.017	-263.138	112.884	234.532	-178.335	83.787	257.316	-231.563	638.806	-328.79	222.462	619.575	-203.405	294.783	666.008	-132.515	-335.436	686.11	-338.319	-306.89	133.132	-87.817	0.015406	0.004202	-0.024927	0.057923	-0.072881	-0.134011
-354.823	115.437	-148.054	-263.153	112.847	234.509	-178.362	83.797	257.298	-231.498	638.789	-328.898	220.554	618.863	-200.341	292.619	665.104	-129.049	-335.37	686.087	-338.475	-306.874	133.148	-87.823	0.012542	-0.002903	-0.02823	0.074443	-0.05407	-0.122324
-354.807	115.435	-148.075	-263.219	112.846	234.492	-178.407	83.785	257.29	-231.453	638.779	-329.003	218.324	617.957	-197.554	290.358	664.27	-125.484	-335.296	686.059	-338.671	-306.87	133.151	-87.842	0.012468	-0.00784	-0.019942	0.061072	-0.074472	-0.112773
-354.81	115.41	-148.099	-263.249	112.807	234.454	-178.436	83.77	257.281	-231.394	638.758	-329.075	217.024	617.158	-194.521	287.948	663.391	-121.856	-335.211	686.029	-338.838	-306.884	133.147	-87.888	0.011543	-0.014918	-0.013898	0.032846	-0.097032	-0.125225
-354.826	115.395	-148.126	-263.29	112.795	234.484	-178.47	83.781	257.283	-231.342	638.743	-329.144	215.736	616.408	-191.691	285.45	662.544	-118.206	-335.147	685.965	-339.006	-306.874	133.152	-87.878	0.006986	-0.018306	-0.015275	0.018072	-0.10058	-0.131261
-354.804	115.353	-148.15	-263.332	112.768	234.453	-178.478	83.763	257.278	-231.266	638.722	-329.225	213.805	615.651	-188.637	282.671	661.599	-114.583	-335.11	685.937	-339.177	-306.886	133.141	-87.93	0.003761	-0.019992	-0.007329	0.013579	-0.08872	-0.121824
-354.805	115.332	-148.18	-263.355	112.77	234.451	-178.511	83.765	257.273	-231.204	638.691	-329.277	211.339	614.752	-185.357	279.99	660.719	-110.875	-335.074	685.893	-339.32	-306.899	133.128	-87.967	0.009253	-0.021073	-0.006678	0.027993	-0.052832	-0.120524
-354.808	115.312	-148.202	-263.376	112.721	234.454	-178.542	83.755	257.27	-231.114	638.647	-329.359	208.911	613.913	-182.114	277.183	659.786	-107.124	-335.014	685.826	-339.464	-306.874	133.121	-87.972	0.004325	-0.026179	0.001844	0.046512	-0.018986	-0.119671
-354.806	115.284	-148.237	-263.423	112.73	234.447	-178.555	83.729	257.257	-231.037	638.576	-329.416	206.373	612.945	-178.929	274.268	658.804	-103.396	-334.968	685.767	-339.597	-306.898	133.106	-88.016	0.000939	-0.023947	0.008776	0.053621	-0.005983	-0.112288
-354.782	115.242	-148.269	-263.438	112.728	234.441	-178.572	83.739	257.271	-230.965	638.512	-329.485	203.605	611.986	-175.796	271.215	657.746	-99.637	-334.899	685.7	-339.709	-306.881	133.104	-88.054	-0.004557	-0.017283	0.011973	0.046434	-0.024903	-0.126963
-354.771	115.216	-148.283	-263.435	112.704	234.419	-178.587	83.727	257.262	-230.885	638.413	-329.537	200.549	610.96	-172.493	267.99	656.662	-95.911	-334.839	685.614	-339.847	-306.885	133.095	-88.083	9.2e-05	-0.013658	0.013801	0.024252	-0.043067	-0.134859
-354.76	115.187	-148.305	-263.475	112.688	234.417	-178.599	83.722	257.267	-230.81	638.302	-329.553	197.379	609.937	-169.269	264.557	655.503	-92.179	-334.762	685.516	-339.959	-306.845	133.086	-88.097	0.002542	-0.00847	0.016277	0.002126	-0.047404	-0.126077
-354.739	115.15	-148.306	-263.481	112.689	234.423	-178.605	83.714	257.271	-230.724	638.222	-329.605	194.447	609.028	-165.795	260.986	654.333	-88.484	-334.682	685.414	-340.089	-306.846	133.058	-88.097	0.002677	-0.009729	0.018044	-0.00629	-0.050287	-0.124123
