LLegOut_X	LLegOut_Y	LLegOut_Z	RLegIn_X	RLegIn_Y	RLegIn_Z	RLegOut_X	RLegOut_Y	RLegOut_Z	LArmIn_X	LArmIn_Y	LArmIn_Z	RArmIn_X	RArmIn_Y	RArmIn_Z	RArmOut_X	RArmOut_Y	RArmOut_Z	LArmOut_X	LArmOut_Y	LArmOut_Z	LLegIn_X	LLegIn_Y	LLegIn_Z	LArm_acc_X	LArm_acc_Y	LArm_acc_Z	RArm_acc_X	RArm_acc_Y	RArm_acc_Z
-354.815	116.216	-146.726	-257.262	113.259	207.619	-172.504	86.945	231.178	-207.041	689.252	-336.979	119.093	607.19	-158.012	178.543	635.895	-66.668	-309.664	738.231	-308.328	-306.781	132.164	-86.541	-0.003072	-0.002041	0.001579	0.000401	0.002581	-0.000544
-354.824	116.211	-146.726	-257.247	113.268	207.614	-172.513	86.943	231.175	-207.075	689.294	-336.995	119.133	607.239	-157.978	178.538	635.919	-66.629	-309.683	738.238	-308.309	-306.782	132.167	-86.574	0.004319	0.00288	0.003063	-0.001819	-0.001118	0.001633
-354.82	116.209	-146.704	-257.269	113.267	207.629	-172.505	86.929	231.187	-207.086	689.306	-336.946	119.091	607.203	-157.932	178.506	635.881	-66.647	-309.706	738.235	-308.306	-306.782	132.159	-86.556	-0.002919	0.002924	0.001568	-0.00534	0.001697	-0.002052
-354.831	116.218	-146.714	-257.268	113.284	207.635	-172.497	86.938	231.18	-207.082	689.287	-336.907	119.077	607.156	-157.973	178.533	635.886	-66.605	-309.707	738.23	-308.308	-306.796	132.165	-86.548	0.002849	-0.005309	0.000286	-0.00446	0.001567	-0.00636
-354.815	116.217	-146.725	-257.221	113.253	207.644	-172.486	86.947	231.188	-207.119	689.288	-336.927	119.093	607.197	-157.939	178.509	635.884	-66.589	-309.725	738.251	-308.297	-306.775	132.158	-86.567	0.001445	-0.003816	0.003901	0.000624	0.000748	-0.004743
-354.816	116.208	-146.708	-257.263	113.281	207.64	-172.483	86.951	231.174	-207.113	689.269	-336.893	119.088	607.198	-157.903	178.506	635.882	-66.565	-309.737	738.221	-308.301	-306.759	132.175	-86.557	0.00219	-0.0038	0.000985	0.004291	-0.000799	-0.003968
-354.827	116.227	-146.72	-257.237	113.269	207.638	-172.48	86.94	231.187	-207.147	689.308	-336.899	119.071	607.195	-157.928	178.488	635.858	-66.535	-309.755	738.227	-308.269	-306.763	132.16	-86.563	-4.2e-05	-0.005806	-0.003424	-0.000664	0.001257	-0.007065
-354.823	116.226	-146.728	-257.26	113.271	207.654	-172.475	86.944	231.176	-207.153	689.307	-336.861	119.053	607.192	-157.903	178.446	635.837	-66.532	-309.774	738.237	-308.27	-306.793	132.155	-86.571	0.002975	0.002381	-0.005006	-0.003633	-0.001743	-0.002817
-354.835	116.238	-146.724	-257.241	113.246	207.658	-172.489	86.953	231.189	-207.154	689.289	-336.816	119.063	607.161	-157.883	178.439	635.835	-66.515	-309.797	738.239	-308.237	-306.775	132.178	-86.539	-0.004308	0.004905	-0.005155	0.001374	0.001066	0.002377
-354.835	116.227	-146.711	-257.272	113.282	207.645	-172.477	86.935	231.192	-207.174	689.293	-336.784	119.014	607.192	-157.778	178.432	635.823	-66.495	-309.83	738.251	-308.234	-306.769	132.174	-86.57	-0.0022	0.003594	0.000654	-4.1e-05	-0.001232	0.002374
-354.823	116.233	-146.718	-257.264	113.261	207.644	-172.469	86.932	231.19	-207.175	689.292	-336.794	119.004	607.172	-157.755	178.433	635.8	-66.472	-309.84	738.245	-308.21	-306.775	132.162	-86.552	-0.002845	0.005783	0.002089	0.00136	-0.00276	0.005371
-354.812	116.218	-146.702	-257.259	113.28	207.66	-172.49	86.937	231.197	-207.194	689.308	-336.785	118.983	607.116	-157.803	178.411	635.802	-66.46	-309.859	738.24	-308.194	-306.764	132.157	-86.542	-0.002178	-0.002398	0.000772	0.000829	0.000774	-0.00117
-354.813	116.224	-146.714	-257.244	113.261	207.651	-172.485	86.941	231.208	-207.195	689.293	-336.741	119.008	607.12	-157.83	178.426	635.79	-66.46	-309.901	738.238	-308.18	-306.769	132.156	-86.531	-0.006535	-0.006078	0.002268	0.002336	-0.007287	-0.002528
-354.807	116.22	-146.716	-257.245	113.257	207.673	-172.521	86.932	231.2	-207.187	689.28	-336.678	118.952	607.081	-157.791	178.418	635.79	-66.418	-309.914	738.234	-308.14	-306.739	132.161	-86.529	-0.00505	-0.014177	-0.00052	0.00163	-0.002238	-0.00258
-354.794	116.215	-146.71	-257.234	113.253	207.667	-172.508	86.93	231.177	-207.215	689.271	-336.633	118.985	607.083	-157.77	178.441	635.792	-66.388	-309.933	738.212	-308.14	-306.754	132.143	-86.528	-0.001967	-0.012604	0.001642	-0.001099	-0.005209	-0.008503
-354.804	116.222	-146.716	-257.22	113.229	207.675	-172.503	86.95	231.21	-207.256	689.267	-336.587	119.027	607.133	-157.762	178.43	635.763	-66.395	-309.967	738.208	-308.112	-306.765	132.143	-86.557	-0.00831	-0.009251	0.000747	0.003918	-0.005986	-0.004072
-354.803	116.209	-146.725	-257.255	113.283	207.656	-172.488	86.951	231.214	-207.257	689.219	-336.495	119.013	607.087	-157.735	178.436	635.767	-66.379	-309.981	738.21	-308.079	-306.767	132.143	-86.553	-0.014626	-0.005729	0.002722	0.002432	-0.007501	-0.001265
-354.814	116.226	-146.723	-257.283	113.292	207.662	-172.495	86.942	231.2	-207.271	689.218	-336.489	119.008	607.094	-157.741	178.421	635.754	-66.381	-309.998	738.191	-308.081	-306.763	132.154	-86.536	-0.01149	-0.007458	0.003378	-0.001135	-0.001755	-0.002199
-354.824	116.237	-146.738	-257.27	113.279	207.677	-172.497	86.932	231.204	-207.29	689.206	-336.471	119.028	607.126	-157.683	178.437	635.731	-66.391	-310.004	738.182	-308.047	-306.768	132.154	-86.55	-0.012571	-0.004803	-0.0004	-0.006105	-0.005484	-0.005269
-354.824	116.233	-146.726	-257.285	113.288	207.663	-172.498	86.949	231.207	-207.31	689.205	-336.456	119.005	607.036	-157.719	178.444	635.727	-66.361	-310.104	738.239	-307.929	-306.747	132.168	-86.542	-0.010787	-0.007303	0.001008	-0.001704	-0.000457	-0.005225
-354.819	116.232	-146.718	-257.265	113.266	207.659	-172.494	86.94	231.206	-207.304	689.208	-336.455	118.989	607.023	-157.684	178.451	635.714	-66.339	-310.109	738.239	-307.923	-306.777	132.148	-86.565	-0.016078	-0.003167	0.003032	-0.000243	0.001658	-0.003807
-354.827	116.23	-146.723	-257.256	113.269	207.661	-172.496	86.954	231.198	-207.306	689.182	-336.449	118.991	607.035	-157.684	178.444	635.681	-66.334	-310.107	738.216	-307.929	-306.769	132.16	-86.537	-0.017704	-0.000549	0.008749	0.00122	-0.000559	-0.003092
-354.828	116.227	-146.726	-257.256	113.246	207.667	-172.495	86.966	231.224	-207.303	689.202	-336.416	118.989	607.003	-157.702	178.442	635.69	-66.34	-310.091	738.179	-307.917	-306.781	132.147	-86.533	-0.011336	-0.00606	0.010251	0.002631	0.003056	-0.000895
-354.807	116.211	-146.725	-257.281	113.284	207.658	-172.5	86.934	231.206	-207.298	689.208	-336.441	118.982	607.031	-157.712	178.442	635.688	-66.336	-310.086	738.173	-307.909	-306.75	132.15	-86.531	-0.014911	-0.004861	0.005053	0.002679	0.00301	-0.002321
-354.811	116.204	-146.717	-257.236	113.248	207.668	-172.517	86.944	231.207	-207.311	689.209	-336.448	118.957	606.995	-157.687	178.429	635.674	-66.311	-310.099	738.171	-307.917	-306.767	132.133	-86.544	-0.015561	-0.004952	0.009309	0.001183	-0.000661	-0.000162
-354.803	116.2	-146.712	-257.279	113.264	207.675	-172.525	86.931	231.192	-207.271	689.197	-336.42	118.941	606.97	-157.709	178.419	635.673	-66.333	-310.081	738.16	-307.897	-306.758	132.144	-86.543	-0.016042	-0.000597	0.006944	-0.000854	5e-06	-0.005277
-354.8	116.204	-146.709	-257.278	113.271	207.669	-172.522	86.952	231.211	-207.288	689.198	-336.392	118.904	606.968	-157.733	178.374	635.664	-66.362	-310.073	738.131	-307.893	-306.749	132.129	-86.561	-0.008426	0.007357	0.003127	-0.005291	-3.5e-05	-0.001758
-354.819	116.211	-146.721	-257.248	113.244	207.667	-172.507	86.918	231.203	-207.312	689.196	-336.407	118.82	606.87	-157.669	178.375	635.659	-66.334	-310.063	738.122	-307.915	-306.758	132.146	-86.541	-0.010363	0.013379	0.003592	0.006295	-0.003692	0.000744
-354.809	116.203	-146.716	-257.282	113.282	207.666	-172.497	86.952	231.21	-207.3	689.213	-336.403	118.806	606.864	-157.647	178.386	635.667	-66.331	-310.064	738.113	-307.903	-306.768	132.135	-86.547	-0.010808	0.020085	0.004067	-0.000221	0.004968	0.000541
-354.805	116.214	-146.718	-257.256	113.255	207.671	-172.518	86.928	231.202	-207.3	689.185	-336.369	118.749	606.83	-157.649	178.361	635.638	-66.348	-310.044	738.109	-307.922	-306.752	132.134	-86.576	-0.004679	0.024332	0.003214	0.001313	0.001997	-0.001598
-354.817	116.204	-146.727	-257.265	113.247	207.674	-172.516	86.92	231.203	-207.293	689.2	-336.419	118.787	606.861	-157.609	178.373	635.638	-66.357	-310.02	738.094	-307.892	-306.768	132.143	-86.569	-0.003689	0.023352	0.003164	-0.001574	-0.000224	-0.00169
-354.811	116.206	-146.717	-257.289	113.254	207.679	-172.518	86.915	231.202	-207.28	689.187	-336.406	118.753	606.818	-157.695	178.354	635.637	-66.364	-310.001	738.075	-307.896	-306.756	132.139	-86.55	0.001065	0.029398	0.006767	0.006489	-0.000997	-0.002974
-354.805	116.222	-146.726	-257.276	113.248	207.665	-172.518	86.929	231.202	-207.243	689.213	-336.456	118.629	606.712	-157.705	178.344	635.641	-66.365	-309.989	738.045	-307.868	-306.775	132.138	-86.545	0.008443	0.018441	0.008443	0.006356	0.00333	0.003488
-354.801	116.199	-146.704	-257.289	113.258	207.678	-172.522	86.917	231.209	-207.259	689.199	-336.46	118.661	606.73	-157.672	178.34	635.611	-66.394	-309.971	738.021	-307.87	-306.759	132.137	-86.569	0.005044	0.016343	0.007035	0.004275	0.006188	0.000483
-354.793	116.193	-146.721	-257.27	113.242	207.689	-172.512	86.92	231.215	-207.246	689.195	-336.473	118.604	606.705	-157.709	178.353	635.61	-66.406	-309.981	738.022	-307.85	-306.734	132.111	-86.55	0.009543	0.011169	0.004272	0.002274	-0.004064	-0.005385
-354.787	116.185	-146.724	-257.285	113.248	207.679	-172.519	86.923	231.217	-207.255	689.204	-336.557	118.634	606.712	-157.679	178.362	635.595	-66.421	-309.96	738.029	-307.86	-306.734	132.121	-86.543	0.016098	0.005371	0.002943	0.002362	0.00459	-0.007614
-354.8	116.183	-146.713	-257.272	113.247	207.689	-172.513	86.907	231.216	-207.223	689.176	-336.577	118.624	606.711	-157.704	178.367	635.603	-66.418	-309.936	738.004	-307.841	-306.727	132.129	-86.543	0.013971	0.007115	-0.00149	0.000857	0.000192	-0.004764
-354.796	116.175	-146.702	-257.263	113.258	207.676	-172.504	86.927	231.22	-207.203	689.139	-336.515	118.592	606.695	-157.767	178.376	635.614	-66.453	-309.93	737.992	-307.832	-306.746	132.124	-86.542	0.012278	0.003878	0.002831	0.001494	0.000883	-0.000402
-354.793	116.191	-146.722	-257.276	113.258	207.678	-172.522	86.916	231.222	-207.181	689.119	-336.584	118.597	606.61	-157.793	178.386	635.614	-66.47	-309.899	737.956	-307.834	-306.74	132.135	-86.546	0.006177	0.003629	0.004163	0.001646	0.000824	-0.0055
-354.815	116.19	-146.72	-257.262	113.242	207.671	-172.521	86.913	231.21	-207.187	689.095	-336.574	118.561	606.607	-157.808	178.388	635.611	-66.5	-309.883	737.923	-307.845	-306.747	132.124	-86.533	0.008859	0.008218	0.001901	0.001022	0.00294	-0.008451
-354.815	116.187	-146.722	-257.272	113.261	207.67	-172.538	86.911	231.209	-207.154	689.091	-336.572	118.624	606.612	-157.79	178.406	635.618	-66.513	-309.856	737.922	-307.86	-306.764	132.112	-86.557	0.010731	0.014181	0.003283	0.000951	0.002183	-0.004847
-354.813	116.186	-146.72	-257.273	113.258	207.687	-172.513	86.929	231.206	-207.133	689.076	-336.587	118.625	606.614	-157.854	178.412	635.613	-66.548	-309.848	737.895	-307.87	-306.754	132.121	-86.548	0.006628	0.017158	0.002502	-0.000484	0.002141	-0.004894
-354.818	116.192	-146.714	-257.256	113.246	207.672	-172.508	86.94	231.201	-207.139	689.103	-336.601	118.587	606.609	-157.876	178.423	635.627	-66.58	-309.817	737.87	-307.867	-306.748	132.105	-86.563	0.004422	0.007617	0.001166	-0.00267	-0.005168	-0.004197
-354.804	116.167	-146.704	-257.237	113.25	207.662	-172.504	86.935	231.204	-207.129	689.099	-336.643	118.601	606.616	-157.899	178.429	635.626	-66.605	-309.799	737.859	-307.882	-306.749	132.116	-86.557	0.002971	0.00457	0.001963	0.001762	0.000607	-0.006274
-354.799	116.172	-146.712	-257.254	113.245	207.669	-172.497	86.939	231.21	-207.109	689.093	-336.663	118.6	606.608	-157.912	178.447	635.634	-66.616	-309.795	737.867	-307.885	-306.733	132.097	-86.552	0.005128	0.001446	-0.000123	-0.004872	-0.001597	-0.002769
-354.79	116.154	-146.713	-257.234	113.256	207.635	-172.489	86.941	231.185	-207.121	689.061	-336.641	118.671	606.672	-157.961	178.43	635.641	-66.666	-309.817	737.821	-307.922	-306.736	132.069	-86.556	0.003606	0.003647	0.007855	-0.001277	-0.000161	-0.001175
-354.779	116.156	-146.698	-257.206	113.254	207.6	-172.498	86.962	231.18	-207.125	689.019	-336.633	118.585	606.624	-157.93	178.456	635.661	-66.681	-309.803	737.804	-307.931	-306.708	132.064	-86.54	0.012274	0.006391	0.004983	-0.00048	-0.000204	-0.003979
-354.788	116.151	-146.7	-257.169	113.27	207.546	-172.482	86.972	231.159	-207.127	688.994	-336.648	118.605	606.612	-158.035	178.442	635.677	-66.722	-309.818	737.792	-307.944	-306.726	132.058	-86.556	0.002552	0.005253	0.005585	-0.001273	0.002674	-0.001079
-354.793	116.129	-146.695	-257.136	113.268	207.468	-172.492	86.99	231.116	-207.14	689.012	-336.69	118.601	606.606	-158.025	178.457	635.703	-66.742	-309.818	737.755	-307.98	-306.719	132.048	-86.558	-0.001952	0.009857	0.003256	-0.001189	0.00118	-0.00396
-354.802	116.129	-146.682	-257.112	113.285	207.393	-172.477	87.02	231.118	-207.136	688.968	-336.63	118.553	606.563	-158.058	178.461	635.733	-66.78	-309.798	737.743	-307.987	-306.739	132.04	-86.545	0.000546	-0.00095	0.002604	0.003136	-0.000289	-0.002358
-354.804	116.14	-146.666	-257.041	113.293	207.273	-172.453	87.085	231.091	-207.126	688.963	-336.676	118.563	606.594	-158.05	178.501	635.783	-66.837	-309.787	737.782	-308.014	-306.708	132.042	-86.541	0.003249	0.000531	0.001849	-0.00415	0.001856	-0.001128
-354.793	116.142	-146.655	-257.001	113.304	207.152	-172.443	87.119	231.097	-207.12	688.961	-336.683	118.645	606.687	-158.125	178.521	635.803	-66.87	-309.859	737.861	-307.929	-306.706	132.032	-86.536	0.005093	-0.000169	0.003293	0.003085	0.004005	0.001213
-354.771	116.101	-146.639	-256.946	113.314	207.033	-172.417	87.198	231.088	-207.119	688.959	-336.682	118.673	606.687	-158.183	178.539	635.85	-66.942	-309.839	737.852	-307.963	-306.701	132.003	-86.501	-0.001083	0.000727	0.001005	-0.005559	0.001801	-0.001917
-354.757	116.062	-146.605	-256.898	113.35	206.849	-172.385	87.317	231.087	-207.11	688.979	-336.733	118.676	606.705	-158.237	178.575	635.893	-66.991	-309.824	737.848	-308.0	-306.675	131.961	-86.51	0.002868	0.001468	-0.000475	-0.00112	-0.001141	-0.004663
-354.736	116.029	-146.566	-256.762	113.363	206.639	-172.339	87.413	231.047	-207.115	688.995	-336.747	118.627	606.643	-158.3	178.62	635.937	-67.098	-309.81	737.867	-308.03	-306.626	131.913	-86.48	-0.000462	0.003786	-0.004221	0.001827	-0.000428	-0.006027
-354.709	116.025	-146.548	-256.596	113.418	206.366	-172.239	87.586	231.041	-207.113	689.007	-336.78	118.636	606.686	-158.354	178.673	636.018	-67.189	-309.79	737.869	-308.077	-306.619	131.874	-86.452	-0.000222	0.006046	-0.001383	-0.004166	-0.004752	0.000362
-354.703	115.999	-146.505	-256.326	113.442	205.997	-172.064	87.794	231.02	-207.128	689.013	-336.863	118.602	606.66	-158.434	178.708	636.07	-67.25	-309.792	737.87	-308.12	-306.578	131.837	-86.426	-7.7e-05	-0.000545	-0.002789	0.004634	0.002502	-0.002314
-354.703	116.0	-146.458	-256.005	113.489	205.475	-171.828	88.046	230.96	-207.1	688.988	-336.883	118.576	606.67	-158.536	178.769	636.155	-67.352	-309.767	737.893	-308.119	-306.58	131.827	-86.408	0.001785	0.005134	-0.005014	0.004526	-0.003271	0.001333
-354.694	116.002	-146.406	-255.608	113.534	204.678	-171.519	88.299	230.793	-207.139	688.981	-336.881	118.471	606.603	-158.519	178.787	636.203	-67.454	-309.739	737.92	-308.165	-306.574	131.808	-86.374	-0.000204	-0.000893	-0.006386	-0.000526	-0.001083	-0.000278
-354.703	116.021	-146.356	-255.018	113.542	203.639	-171.105	88.611	230.38	-207.152	688.999	-336.938	118.38	606.542	-158.564	178.812	636.259	-67.537	-309.731	737.97	-308.183	-307.011	131.669	-86.603	-0.008759	-0.006843	-0.001975	-0.007714	0.000381	-0.004091
-354.712	116.034	-146.315	-254.237	113.468	202.312	-170.506	88.971	229.67	-207.17	688.979	-336.908	118.411	606.562	-158.64	178.846	636.316	-67.646	-309.728	737.983	-308.181	-307.041	131.64	-86.576	-0.00556	-0.013843	-0.006158	-0.005482	0.00112	-0.00622
-354.745	116.046	-146.281	-253.241	113.473	200.678	-169.778	89.347	228.561	-207.216	688.963	-336.95	118.35	606.598	-158.715	178.869	636.397	-67.713	-309.712	738.022	-308.172	-307.03	131.647	-86.539	-0.0089	-0.019163	-0.005345	-0.003347	0.006249	-0.004749
-354.774	116.036	-146.226	-252.192	113.526	198.684	-168.886	89.72	227.008	-207.234	688.937	-336.913	118.355	606.632	-158.789	178.918	636.493	-67.781	-309.713	738.057	-308.171	-307.025	131.612	-86.486	-0.007021	-0.020827	-0.00601	-0.000426	0.000472	-0.006077
-354.78	116.018	-146.171	-251.039	113.673	196.487	-167.832	90.143	225.045	-207.261	688.95	-336.91	118.369	606.713	-158.856	178.912	636.574	-67.884	-309.696	738.079	-308.138	-307.013	131.585	-86.455	-0.005953	-0.023776	-0.004529	-0.000473	-0.000228	-0.004617
-354.779	116.02	-146.134	-249.796	113.845	194.102	-166.688	90.559	222.753	-207.287	688.943	-336.902	118.355	606.757	-158.901	178.91	636.649	-67.967	-309.697	738.11	-308.102	-306.995	131.537	-86.404	-0.003353	-0.023011	-0.000185	-0.002719	-0.002388	-0.002481
-354.761	115.991	-146.112	-248.424	114.049	191.483	-165.393	91.027	220.253	-207.334	688.91	-336.886	118.258	606.722	-158.938	178.893	636.72	-68.054	-309.706	738.185	-308.077	-306.961	131.504	-86.395	-0.010061	-0.019275	-0.005392	-0.000392	-0.003128	-0.008222
-354.772	115.975	-146.078	-246.988	114.364	188.666	-163.959	91.474	217.496	-207.368	688.898	-336.863	118.289	606.784	-159.103	178.91	636.802	-68.163	-309.694	738.22	-308.034	-306.947	131.438	-86.39	-0.009614	-0.020751	-0.000284	-0.004273	-0.001586	0.000371
-354.779	115.934	-146.067	-245.371	114.633	185.742	-162.37	91.984	214.573	-207.388	688.833	-336.82	118.27	606.759	-159.21	178.92	636.839	-68.316	-309.689	738.276	-307.976	-306.936	131.381	-86.408	-0.01492	-0.022238	-0.005394	0.003589	0.000694	0.004886
-354.82	115.895	-146.111	-243.638	114.9	182.618	-160.677	92.541	211.548	-207.415	688.784	-336.765	118.224	606.814	-159.353	178.942	636.871	-68.452	-309.68	738.317	-307.913	-306.929	131.325	-86.45	-0.007788	-0.020156	-0.000271	-0.000678	0.002247	-0.001004
-354.853	115.871	-146.137	-241.817	115.211	179.359	-158.864	93.091	208.369	-207.458	688.738	-336.711	118.186	606.88	-159.533	178.949	636.895	-68.626	-309.664	738.349	-307.848	-306.917	131.28	-86.508	-0.008027	-0.024448	-0.001717	0.003586	0.000207	-5.6e-05
-354.898	115.84	-146.164	-240.01	115.537	175.995	-156.924	93.7	205.115	-207.459	688.682	-336.722	118.071	606.887	-159.721	178.975	636.901	-68.811	-309.622	738.366	-307.796	-306.944	131.219	-86.571	-0.01113	-0.026437	-0.002501	-0.006621	0.001826	-0.003089
-354.925	115.807	-146.194	-238.165	115.917	172.523	-154.869	94.342	201.674	-207.509	688.676	-336.747	117.939	606.854	-159.826	178.989	636.911	-68.967	-309.574	738.405	-307.742	-306.924	131.166	-86.634	-0.01341	-0.022484	-0.000463	-0.007466	0.00205	-0.00364
-354.965	115.759	-146.244	-235.997	116.381	168.816	-152.663	94.999	198.065	-207.489	688.632	-336.659	117.891	606.813	-159.945	179.003	636.927	-69.134	-309.539	738.427	-307.688	-306.923	131.101	-86.709	-0.012816	-0.024308	0.00018	-0.007575	0.003769	-0.005585
-354.991	115.698	-146.283	-233.545	116.789	164.883	-150.291	95.675	194.332	-207.471	688.59	-336.64	117.889	606.756	-160.021	179.016	636.949	-69.31	-309.465	738.412	-307.62	-306.904	131.021	-86.79	-0.012787	-0.017291	0.002158	-0.00558	0.004094	-0.005291
-355.026	115.617	-146.354	-230.911	117.253	160.774	-147.737	96.305	190.398	-207.424	688.585	-336.666	119.672	608.661	-161.284	179.032	636.992	-69.456	-309.383	738.401	-307.572	-306.907	130.956	-86.893	-0.00763	-0.013274	0.002757	-0.009444	0.00879	-0.003702
-355.027	115.534	-146.415	-228.295	117.651	156.56	-145.045	96.913	186.329	-207.372	688.553	-336.721	118.613	607.468	-161.442	179.066	637.022	-69.656	-309.315	738.385	-307.545	-306.873	130.903	-86.987	-0.0067	-0.007021	-0.003979	-0.006086	0.001865	-0.000399
-355.051	115.455	-146.471	-225.561	118.138	152.261	-142.251	97.584	182.154	-207.276	688.484	-336.663	118.453	607.38	-161.345	179.116	637.092	-69.794	-309.233	738.336	-307.515	-306.85	130.821	-87.072	-0.002322	-0.01025	-0.008414	-0.003223	0.000718	-0.006507
-355.032	115.36	-146.505	-222.76	118.604	147.869	-139.365	98.249	177.928	-207.215	688.432	-336.713	118.283	607.233	-161.249	179.21	637.172	-69.995	-309.136	738.333	-307.49	-306.856	130.731	-87.14	-0.000767	-0.003827	-0.010103	-0.002742	-0.00397	-0.006124
-355.035	115.28	-146.574	-219.763	118.985	143.429	-136.366	98.928	173.654	-207.099	688.294	-336.674	118.101	607.115	-161.201	179.337	637.249	-70.213	-309.03	738.279	-307.464	-306.78	130.699	-87.226	-0.006023	-0.011103	-0.017544	0.002101	-0.006436	-0.007
-355.025	115.204	-146.622	-216.71	119.5	139.017	-133.275	99.593	169.337	-207.065	688.225	-336.77	118.129	607.109	-161.145	179.51	637.373	-70.436	-308.929	738.235	-307.461	-306.776	130.597	-87.276	-0.00372	-0.003955	-0.014864	0.005529	-0.009569	-0.01079
-355.011	115.133	-146.675	-213.652	119.941	134.649	-130.209	100.287	164.969	-206.974	688.127	-336.805	118.179	607.078	-161.245	179.729	637.484	-70.698	-308.827	738.193	-307.44	-306.742	130.537	-87.35	-0.00942	0.000232	-0.010707	-0.000705	-0.003913	-0.007569
-355.003	115.061	-146.729	-210.606	120.454	130.339	-127.132	101.031	160.673	-206.865	688.024	-336.879	118.234	607.016	-161.363	179.966	637.608	-71.062	-308.686	738.143	-307.438	-306.718	130.494	-87.431	-0.015732	0.007824	4.3e-05	0.004901	0.000281	-0.012709
-354.979	114.995	-146.79	-207.446	121.049	126.063	-123.95	101.94	156.501	-206.761	687.986	-336.972	118.321	607.033	-161.442	180.246	637.765	-71.391	-308.546	738.076	-307.432	-306.415	130.497	-87.469	-0.015531	0.008365	0.005935	0.003678	-0.001983	-0.007841
-354.987	114.915	-146.869	-203.781	121.342	121.928	-120.735	102.862	152.269	-206.637	687.9	-337.07	118.44	606.988	-161.609	180.548	637.915	-71.77	-308.386	738.003	-307.422	-306.707	130.367	-87.584	-0.024281	-0.005125	0.006898	0.005477	-0.005	-0.007238
-354.993	114.84	-146.944	-200.527	122.067	117.616	-117.461	103.835	148.098	-206.548	687.845	-337.176	118.609	607.049	-161.721	180.916	638.08	-72.155	-308.242	737.947	-307.406	-306.675	130.314	-87.685	-0.028597	-0.015087	0.015889	0.005941	0.007204	-0.010393
-355.01	114.79	-147.015	-197.233	122.879	113.305	-114.112	104.883	143.87	-206.411	687.791	-337.411	118.902	607.216	-162.133	181.322	638.271	-72.571	-308.058	737.862	-307.44	-306.694	130.263	-87.813	-0.034199	-0.019198	0.016793	0.002509	0.026011	-0.003554
-355.034	114.73	-147.095	-193.837	123.728	109.005	-110.696	106.005	139.64	-206.3	687.752	-337.63	119.189	607.32	-162.442	181.752	638.423	-73.048	-307.898	737.788	-307.417	-306.652	130.239	-87.903	-0.036296	-0.026056	0.022059	0.004862	0.030196	0.005697
-355.047	114.683	-147.128	-190.356	124.655	104.616	-107.203	107.176	135.425	-206.176	687.693	-337.809	119.467	607.374	-162.743	182.159	638.593	-73.474	-307.711	737.682	-307.43	-306.66	130.208	-87.984	-0.036881	-0.027485	0.027177	0.006848	0.024036	0.002006
-355.041	114.64	-147.176	-186.806	125.654	100.251	-103.61	108.401	131.18	-206.053	687.604	-338.038	119.734	607.382	-163.142	182.671	638.805	-73.963	-307.509	737.592	-307.439	-306.66	130.186	-88.037	-0.037295	-0.017751	0.026278	0.004444	0.022281	-0.002432
-355.028	114.608	-147.197	-183.198	126.683	95.883	-99.974	109.664	126.912	-205.937	687.529	-338.204	120.099	607.473	-163.393	183.158	638.985	-74.444	-307.286	737.479	-307.465	-306.658	130.165	-88.025	-0.035651	-0.010661	0.029707	0.00256	0.009708	-0.001555
-355.023	114.59	-147.207	-179.623	127.826	91.484	-96.246	111.013	122.597	-205.787	687.425	-338.39	120.544	607.543	-163.734	183.68	639.123	-74.928	-307.074	737.389	-307.487	-306.616	130.141	-88.031	-0.025905	-0.00153	0.025898	-0.001572	-0.005737	0.000779
-354.994	114.552	-147.209	-176.163	129.082	87.212	-92.472	112.437	118.275	-205.666	687.357	-338.667	120.915	607.685	-164.11	184.225	639.278	-75.427	-306.831	737.277	-307.499	-306.609	130.121	-88.053	-0.019837	0.007734	0.022764	0.005306	-0.021088	-0.001751
-354.983	114.521	-147.235	-172.278	130.304	82.788	-88.63	113.92	114.009	-205.508	687.226	-338.856	121.229	607.694	-164.602	184.802	639.435	-75.959	-306.612	737.158	-307.515	-306.584	130.079	-88.055	-0.014617	0.01572	0.023955	-0.002471	-0.017402	-0.00122
-354.963	114.499	-147.237	-168.263	131.42	78.45	-84.744	115.478	109.76	-205.373	687.114	-339.088	121.574	607.642	-165.019	185.347	639.56	-76.519	-306.83	737.347	-307.627	-306.598	130.052	-88.047	-0.012166	0.027278	0.01346	-0.010422	-0.009977	0.005713
-354.946	114.487	-147.224	-164.491	132.766	74.319	-80.815	117.086	105.575	-205.277	687.047	-339.286	121.978	607.65	-165.42	185.962	639.726	-77.057	-306.487	737.258	-307.395	-306.568	130.026	-88.049	-0.002508	0.035846	0.015435	-0.013878	-0.004046	0.009025
-354.922	114.478	-147.216	-160.7	134.114	70.194	-76.875	118.71	101.428	-205.146	686.937	-339.521	122.383	607.639	-165.895	186.589	639.852	-77.643	-306.251	737.114	-307.423	-306.552	130.002	-88.038	0.003486	0.036878	0.000789	-0.015843	0.005478	0.011628
-354.909	114.477	-147.207	-156.845	135.474	66.133	-72.884	120.353	97.354	-204.995	686.876	-339.801	122.8	607.727	-166.364	187.12	639.955	-78.21	-306.027	737.03	-307.418	-306.531	129.99	-88.029	0.011593	0.036494	0.003646	-0.020894	0.004881	0.020024
-354.904	114.469	-147.177	-153.047	136.903	62.099	-68.873	122.045	93.318	-204.854	686.764	-340.029	123.29	607.838	-166.893	187.739	640.079	-78.804	-305.772	736.908	-307.45	-306.53	129.964	-88.002	0.016883	0.03446	-0.007277	-0.030284	0.007936	0.026206
-354.897	114.471	-147.166	-149.057	138.201	58.096	-64.854	123.711	89.302	-204.711	686.696	-340.315	123.751	607.813	-167.406	188.22	639.994	-79.728	-305.531	736.776	-307.485	-306.497	129.945	-87.985	0.031638	0.035086	-0.013021	-0.032257	0.011747	0.026048
-354.865	114.478	-147.162	-145.167	139.573	54.195	-60.838	125.425	85.458	-204.557	686.631	-340.541	124.098	607.81	-167.752	188.813	640.077	-80.332	-305.283	736.636	-307.517	-306.483	129.917	-87.959	0.036792	0.032982	-0.01227	-0.02991	0.015575	0.026788
-354.858	114.452	-147.162	-141.216	140.842	50.46	-56.846	127.095	81.719	-204.384	686.553	-340.663	124.455	607.79	-168.113	189.441	640.195	-80.959	-305.065	736.533	-307.564	-306.468	129.892	-87.954	0.043409	0.029354	-0.016577	-0.031243	0.012216	0.028141
-354.827	114.435	-147.113	-137.345	142.141	46.8	-52.918	128.785	78.115	-204.247	686.504	-340.872	124.839	607.867	-168.601	190.036	640.305	-81.526	-304.852	736.435	-307.577	-306.436	129.852	-87.911	0.050007	0.025031	-0.021617	-0.029756	0.016158	0.033119
-354.778	114.421	-147.095	-133.538	143.377	43.352	-49.025	130.37	74.71	-204.078	686.452	-341.008	124.867	609.284	-166.831	190.615	640.368	-82.121	-304.645	736.319	-307.646	-306.392	129.831	-87.878	0.054442	0.02523	-0.016554	-0.028749	0.014987	0.028624
-354.755	114.409	-147.077	-129.811	144.594	40.174	-45.255	131.916	71.432	-203.934	686.399	-341.232	125.357	609.365	-167.323	191.181	640.463	-82.758	-304.437	736.251	-307.688	-306.38	129.806	-87.824	0.058311	0.030386	-0.017332	-0.026601	0.012403	0.035823
-354.723	114.402	-147.048	-126.197	145.703	37.276	-41.755	133.329	68.259	-203.805	686.388	-341.426	125.823	609.435	-167.918	191.755	640.528	-83.395	-304.25	736.182	-307.738	-306.358	129.78	-87.786	0.053236	0.024651	-0.013663	-0.020554	0.00905	0.03296
-354.7	114.395	-147.007	-122.709	146.671	34.443	-38.259	134.683	65.409	-203.701	686.331	-341.564	128.079	610.438	-169.261	192.302	640.618	-83.994	-304.062	736.137	-307.767	-306.322	129.765	-87.761	0.045232	0.01356	-0.018616	-0.017355	0.004222	0.028505
-354.7	114.388	-146.988	-119.428	147.467	31.382	-34.936	135.862	62.724	-203.62	686.336	-341.75	128.44	610.45	-169.822	192.834	640.67	-84.648	-303.911	736.093	-307.773	-306.315	129.723	-87.739	0.051865	0.012408	-0.00606	-0.014229	0.005871	0.029022
-354.642	114.379	-146.943	-115.919	148.032	29.034	-31.767	136.94	60.285	-203.578	686.391	-342.011	128.805	610.477	-170.402	193.368	640.696	-85.321	-303.761	736.06	-307.759	-306.277	129.699	-87.69	0.049661	0.00472	-0.007321	-0.008736	0.007473	0.025012
-354.598	114.36	-146.897	-113.05	148.8	26.857	-28.795	137.896	58.038	-203.499	686.388	-342.139	129.166	610.492	-170.916	193.893	640.756	-85.975	-303.629	736.049	-307.766	-306.202	129.683	-87.642	0.041581	-0.00203	-0.008676	-0.011935	0.01268	0.021346
-354.549	114.347	-146.864	-110.544	149.494	25.009	-26.01	138.76	55.992	-203.463	686.427	-342.319	129.465	610.472	-171.38	194.395	640.77	-86.655	-303.455	736.05	-307.555	-306.134	129.657	-87.597	0.042903	-0.008045	-0.003453	-0.000658	0.006251	0.021629
-354.504	114.337	-146.843	-108.07	150.108	23.081	-23.414	139.572	54.059	-203.424	686.428	-342.472	129.736	610.472	-171.911	194.901	640.813	-87.297	-303.346	736.066	-307.496	-306.081	129.618	-87.559	0.03698	-0.008713	-0.002761	-0.001702	0.005616	0.020804
-354.469	114.329	-146.806	-105.706	150.687	21.209	-21.013	140.352	52.241	-203.366	686.442	-342.559	129.993	610.443	-172.41	195.345	640.823	-87.949	-303.224	736.096	-307.383	-306.061	129.573	-87.477	0.041943	-0.006429	0.003024	-0.001752	0.012166	0.010539
-354.423	114.331	-146.775	-103.374	151.164	19.304	-18.803	140.988	50.482	-203.317	686.456	-342.67	130.26	610.462	-172.931	195.798	640.824	-88.599	-303.134	736.109	-307.309	-306.015	129.577	-87.43	0.04102	-0.001073	0.00433	0.000897	0.009264	0.009072
-354.392	114.354	-146.712	-101.478	151.61	17.767	-16.783	141.529	48.814	-203.298	686.493	-342.802	130.581	610.492	-173.571	196.212	640.847	-89.251	-303.068	736.159	-307.233	-305.958	129.559	-87.398	0.039897	-0.001405	0.002732	-0.003706	0.009243	0.007379
-354.357	114.382	-146.667	-99.826	151.973	16.373	-14.98	141.901	47.248	-203.31	686.472	-342.943	130.811	610.482	-174.009	196.635	640.842	-89.925	-302.996	736.208	-307.125	-305.947	129.545	-87.31	0.042432	0.001182	-0.002532	-0.000309	0.00848	0.00657
-354.318	114.398	-146.608	-98.387	152.163	15.08	-13.44	142.141	45.807	-203.345	686.546	-343.054	131.038	610.487	-174.47	197.041	640.861	-90.541	-302.935	736.276	-307.006	-305.9	129.539	-87.248	0.041152	0.002545	0.003789	-0.001264	0.012046	0.006306
-354.276	114.44	-146.54	-97.246	152.251	13.954	-12.182	142.194	44.497	-203.381	686.577	-343.188	131.255	610.488	-174.943	197.388	640.858	-91.148	-302.898	736.339	-306.893	-305.877	129.515	-87.183	0.042117	0.007523	0.003526	0.00154	0.00535	0.002537
-354.245	114.449	-146.471	-96.323	152.186	13.057	-11.173	142.114	43.384	-203.417	686.637	-343.287	131.422	610.459	-175.379	197.703	640.85	-91.755	-302.851	736.44	-306.773	-305.852	129.533	-87.14	0.042438	0.01459	-0.002563	0.005775	0.008014	0.001662
-354.206	114.467	-146.405	-95.773	151.99	12.34	-10.458	141.747	42.471	-203.465	686.66	-343.319	131.67	610.484	-175.979	198.054	640.885	-92.355	-302.831	736.538	-306.661	-305.808	129.506	-87.056	0.048464	0.017945	-0.002746	0.01016	0.006283	-0.004331
-354.18	114.486	-146.336	-95.545	151.623	11.799	-10.133	141.266	41.841	-203.494	686.699	-343.392	131.903	610.53	-176.534	198.357	640.938	-92.976	-302.82	736.638	-306.56	-305.777	129.48	-86.993	0.049251	0.017703	-0.00803	0.00797	0.000873	-0.00832
-354.12	114.507	-146.242	-95.629	151.112	11.447	-10.112	140.495	41.395	-203.551	686.771	-343.492	132.041	610.57	-176.99	198.61	640.981	-93.58	-302.801	736.755	-306.473	-305.71	129.445	-86.951	0.055698	0.014592	-0.009641	0.007079	0.003455	-0.005107
-354.066	114.511	-146.183	-96.096	150.522	11.28	-10.388	139.794	41.068	-203.602	686.854	-343.528	132.134	610.637	-177.499	198.908	641.072	-94.177	-302.781	736.9	-306.37	-305.652	129.398	-86.9	0.05927	0.016751	-0.014289	0.002085	0.008145	-0.010781
-353.995	114.505	-146.098	-96.728	149.953	11.027	-10.798	139.097	40.437	-203.651	686.977	-343.575	132.208	610.744	-178.0	199.192	641.217	-94.841	-302.703	737.059	-306.125	-305.571	129.353	-86.839	0.060639	0.022036	-0.014673	0.005763	0.014235	-0.013306
-353.917	114.497	-146.016	-97.384	149.395	10.481	-11.3	138.365	39.598	-203.682	687.119	-343.625	132.326	610.895	-178.587	199.464	641.378	-95.543	-302.7	737.214	-305.971	-305.46	129.3	-86.764	0.059129	0.028907	-0.019498	0.006412	0.01378	-0.011474
-353.862	114.518	-145.955	-98.255	148.858	9.936	-11.95	137.704	38.676	-203.711	687.278	-343.645	132.428	611.078	-179.13	199.75	641.553	-96.232	-302.71	737.357	-305.807	-305.376	129.238	-86.697	0.061303	0.040089	-0.019969	0.004381	0.011773	-0.018323
-353.794	114.517	-145.856	-99.175	148.274	9.469	-12.73	137.079	37.78	-203.739	687.486	-343.653	132.586	611.315	-179.729	199.852	641.678	-97.011	-302.728	737.473	-305.609	-305.284	129.154	-86.627	0.066854	0.038795	-0.019545	0.009344	0.010548	-0.015459
-353.735	114.484	-145.779	-100.235	147.704	8.986	-13.582	136.458	36.94	-203.771	687.63	-343.627	132.651	611.515	-180.218	200.175	641.893	-97.756	-302.755	737.568	-305.393	-305.183	129.08	-86.538	0.066785	0.045421	-0.022109	0.008573	0.006399	-0.016324
-353.662	114.465	-145.723	-101.206	147.019	9.026	-14.515	135.851	36.174	-203.854	687.824	-343.538	132.787	611.703	-180.77	200.511	642.094	-98.491	-302.78	737.695	-305.13	-305.06	129.0	-86.511	0.057752	0.043395	-0.015167	0.014345	0.011704	-0.017696
-353.599	114.43	-145.636	-102.396	146.464	8.731	-15.576	135.242	35.57	-203.949	687.955	-343.488	132.986	611.924	-181.343	200.912	642.296	-99.19	-302.803	737.799	-304.856	-304.941	128.915	-86.47	0.056732	0.038861	-0.008802	0.014343	0.011888	-0.021294
-353.516	114.379	-145.539	-103.59	145.938	8.611	-16.673	134.639	35.143	-204.043	688.046	-343.354	133.251	612.152	-182.007	201.254	642.469	-99.943	-302.829	737.885	-304.516	-304.799	128.825	-86.455	0.053606	0.034991	-0.00826	0.010628	0.004084	-0.022711
-353.426	114.323	-145.454	-104.797	145.369	8.652	-17.819	134.031	34.969	-204.165	688.078	-343.189	133.416	612.264	-182.523	201.75	642.683	-100.372	-302.852	737.975	-304.152	-304.657	128.677	-86.398	0.051973	0.033243	-0.007718	0.012646	-0.000787	-0.021733
-353.319	114.268	-145.392	-106.056	144.857	8.868	-19.015	133.458	35.007	-204.298	688.105	-343.095	133.703	612.402	-183.095	202.188	642.84	-101.068	-302.852	738.041	-303.729	-304.496	128.552	-86.359	0.048725	0.025746	-0.004962	0.011777	0.002311	-0.021539
-353.21	114.187	-145.314	-107.321	144.367	9.278	-20.238	132.953	35.325	-204.457	688.089	-342.91	133.988	612.519	-183.613	202.672	643.003	-101.708	-302.845	738.07	-303.313	-304.338	128.452	-86.273	0.039695	0.020703	-0.001604	0.010931	-0.001138	-0.02273
-353.135	114.11	-145.246	-108.583	143.943	9.793	-21.485	132.498	35.825	-204.601	688.062	-342.746	134.298	612.617	-184.065	203.16	643.128	-102.372	-302.841	738.107	-302.835	-304.205	128.328	-86.261	0.041751	0.024284	-0.00337	0.012314	-0.003883	-0.025325
-353.08	114.053	-145.199	-109.898	143.57	10.494	-22.768	132.101	36.547	-204.77	687.982	-342.612	134.751	612.751	-184.696	203.668	643.237	-103.018	-302.845	738.079	-302.379	-304.143	128.254	-86.21	0.034887	0.027421	-0.002347	0.012975	-0.010978	-0.028626
-353.044	114.028	-145.169	-110.753	143.094	11.369	-24.082	131.818	37.389	-204.855	687.852	-342.272	135.159	612.78	-185.237	204.221	643.33	-103.673	-302.846	738.058	-301.903	-304.054	128.21	-86.18	0.029265	0.024067	-0.000551	0.012121	-0.015878	-0.029786
-353.025	113.994	-145.117	-112.145	142.971	12.348	-25.401	131.662	38.418	-204.959	687.751	-342.017	135.562	612.762	-185.825	204.754	643.387	-104.34	-302.8	738.022	-301.437	-304.043	128.184	-86.177	0.029539	0.023536	-0.002386	0.007543	-0.01058	-0.027477
-353.031	113.994	-145.098	-113.453	142.93	13.463	-26.656	131.678	39.549	-205.021	687.634	-341.751	135.939	612.777	-186.303	205.357	643.419	-105.019	-302.738	737.938	-300.988	-304.042	128.187	-86.183	0.018247	0.029821	-4e-05	0.002191	-0.011817	-0.023026
-353.073	114.019	-145.086	-114.769	143.041	14.66	-27.947	131.764	40.773	-205.076	687.521	-341.577	136.326	612.733	-186.795	205.981	643.461	-105.68	-302.69	737.85	-300.58	-304.059	128.217	-86.147	0.017181	0.032207	0.001007	-0.013142	-0.010164	-0.026819
-353.113	114.072	-145.068	-115.924	143.136	15.97	-29.218	131.957	42.108	-205.115	687.394	-341.393	136.762	612.722	-187.298	206.663	643.456	-106.316	-302.615	737.778	-300.187	-304.112	128.247	-86.151	0.016815	0.031582	-0.001529	-0.030029	-0.001244	-0.026331
-353.19	114.136	-145.062	-117.181	143.347	17.388	-30.5	132.152	43.559	-205.094	687.284	-341.143	137.216	612.694	-187.763	207.369	643.407	-106.988	-302.528	737.711	-299.832	-304.186	128.334	-86.131	0.008376	0.029538	-0.008466	-0.03458	0.000364	-0.024023
-353.278	114.207	-145.039	-118.366	143.564	18.8	-31.774	132.422	45.13	-205.085	687.175	-340.948	137.661	612.633	-188.155	208.139	643.379	-107.636	-302.443	737.632	-299.51	-304.29	128.427	-86.134	0.004995	0.026716	-0.007347	-0.040082	0.008559	-0.013727
-353.384	114.271	-145.046	-119.571	143.779	20.349	-33.105	132.671	46.898	-205.04	687.098	-340.798	138.16	612.573	-188.575	208.884	643.369	-108.265	-302.342	737.584	-299.23	-304.384	128.532	-86.149	0.000936	0.025222	-0.009121	-0.031879	0.006612	-0.000721
-353.458	114.347	-145.039	-120.819	143.947	21.981	-34.487	132.861	48.765	-205.031	687.028	-340.756	138.769	612.524	-189.132	209.684	643.404	-108.891	-302.228	737.574	-298.999	-304.498	128.637	-86.153	-0.006025	0.024443	-0.005075	-0.030112	0.006136	0.00575
-353.531	114.395	-145.056	-122.135	144.07	23.734	-35.933	132.989	50.792	-204.982	687.014	-340.759	139.306	612.545	-189.464	210.461	643.487	-109.497	-302.117	737.534	-298.872	-304.598	128.74	-86.18	-0.010756	0.018367	-0.008185	-0.023877	0.003466	0.006686
-353.609	114.454	-145.024	-123.551	144.14	25.609	-37.464	133.015	52.917	-204.885	686.982	-340.684	139.889	612.558	-189.804	211.248	643.621	-110.06	-301.989	737.517	-298.766	-304.673	128.802	-86.17	-0.014723	0.017452	0.006129	-0.011926	-0.00714	0.009382
-353.646	114.498	-145.029	-125.015	144.136	27.527	-39.02	132.948	55.12	-204.802	686.967	-340.695	140.383	612.64	-190.005	212.016	643.788	-110.6	-301.875	737.512	-298.716	-304.752	128.892	-86.18	-0.022124	0.017759	0.00155	-0.000717	-0.014054	0.011346
-353.698	114.522	-145.033	-126.554	144.021	29.532	-40.712	132.708	57.434	-204.679	686.971	-340.672	140.916	612.807	-190.311	212.799	644.024	-111.097	-301.771	737.508	-298.741	-304.796	128.957	-86.17	-0.025988	0.009884	-0.002876	0.005314	-0.016552	0.01604
-353.709	114.539	-144.992	-128.235	143.809	31.656	-42.496	132.387	59.905	-204.574	686.994	-340.669	141.444	612.96	-190.609	213.526	644.299	-111.504	-301.687	737.506	-298.847	-304.829	129.024	-86.137	-0.030584	0.003378	-0.002189	0.014255	-0.020446	0.020046
-353.719	114.568	-144.973	-130.016	143.455	33.879	-44.404	131.934	62.456	-204.442	687.006	-340.679	141.835	613.153	-190.52	214.253	644.642	-111.811	-301.622	737.509	-299.001	-304.858	129.068	-86.124	-0.040131	0.002766	-0.000868	0.019635	-0.014098	0.020903
-353.73	114.586	-144.954	-131.927	143.029	36.146	-46.473	131.359	65.092	-204.354	687.052	-340.888	142.192	613.331	-190.437	214.919	645.007	-111.993	-301.56	737.514	-299.178	-304.885	129.113	-86.091	-0.045293	-0.002357	0.003485	0.022076	-0.009151	0.023027
-353.735	114.616	-144.927	-134.011	142.54	38.46	-48.654	130.713	67.772	-204.262	687.084	-340.929	142.651	613.526	-190.154	215.536	645.403	-112.017	-301.527	737.563	-299.398	-304.901	129.164	-86.058	-0.04671	-0.008393	0.00574	0.023138	-0.007852	0.022882
-353.743	114.634	-144.9	-136.232	142.015	40.81	-50.956	130.0	70.405	-204.207	687.13	-341.109	143.137	613.806	-189.878	216.121	645.876	-111.918	-301.44	737.635	-299.549	-304.927	129.202	-86.052	-0.05676	-0.009915	0.013713	0.01986	-0.01094	0.02325
-353.742	114.682	-144.864	-138.429	141.342	43.302	-53.337	129.268	73.043	-204.184	687.176	-341.446	143.644	613.961	-189.469	216.638	646.4	-111.582	-301.422	737.701	-299.82	-304.924	129.271	-85.994	-0.058808	-0.017487	0.016019	0.016528	-0.008907	0.027055
-353.743	114.714	-144.84	-140.785	140.73	45.69	-55.831	128.53	75.629	-204.149	687.213	-341.736	143.224	613.747	-189.188	217.065	646.92	-111.121	-301.402	737.773	-300.129	-304.92	129.293	-85.989	-0.064373	-0.019919	0.01825	0.015644	-0.008381	0.022762
-353.744	114.749	-144.81	-143.206	140.133	48.048	-58.35	127.825	78.21	-204.147	687.236	-342.048	143.532	613.936	-187.932	217.46	647.578	-110.476	-301.422	737.822	-300.485	-304.908	129.327	-85.977	-0.066316	-0.026775	0.021291	0.0212	0.001588	0.024953
-353.753	114.783	-144.747	-145.528	139.521	50.354	-60.891	127.147	80.681	-204.173	687.261	-342.424	144.106	614.27	-186.787	217.72	648.211	-109.643	-301.431	737.888	-300.87	-304.91	129.372	-85.943	-0.068877	-0.029214	0.021354	0.017204	0.004978	0.032632
-353.754	114.801	-144.709	-147.816	138.956	52.641	-63.385	126.478	83.136	-204.194	687.229	-342.771	144.803	614.663	-185.847	217.875	648.89	-108.714	-301.465	737.942	-301.327	-304.909	129.386	-85.918	-0.069906	-0.029416	0.019198	0.01795	0.003128	0.02674
-353.785	114.847	-144.692	-150.281	138.505	54.878	-65.879	125.753	85.573	-204.193	687.212	-343.011	145.303	615.052	-185.075	218.004	649.589	-107.531	-301.497	738.018	-301.846	-304.903	129.434	-85.911	-0.06955	-0.03091	0.024296	0.013485	-0.005261	0.024473
-353.823	114.878	-144.659	-152.87	138.085	57.25	-68.355	125.015	88.106	-204.206	687.212	-343.386	145.552	615.35	-184.082	217.594	650.037	-106.564	-301.543	738.103	-302.352	-304.886	129.478	-85.925	-0.070553	-0.027219	0.025662	0.021329	-0.00711	0.022045
-353.84	114.916	-144.639	-155.089	137.465	59.577	-70.831	124.239	90.707	-204.213	687.22	-343.867	145.737	615.595	-182.899	217.514	650.761	-105.146	-301.622	738.192	-302.989	-304.914	129.514	-85.935	-0.067965	-0.029417	0.02202	0.012933	-0.021991	0.023333
-353.869	114.959	-144.595	-157.408	136.9	61.775	-73.334	123.493	93.381	-204.205	687.202	-344.242	145.81	615.875	-181.531	217.318	651.46	-103.561	-301.656	738.288	-303.637	-304.915	129.564	-85.936	-0.067446	-0.022782	0.026998	-0.005531	-0.03819	0.0138
-353.904	115.008	-144.606	-159.741	136.258	63.999	-75.899	122.699	96.042	-204.18	687.197	-344.597	145.676	616.048	-179.906	217.051	652.163	-101.897	-301.737	738.391	-304.347	-304.926	129.627	-85.939	-0.064088	-0.025032	0.024109	-0.019666	-0.048148	-0.004185
-353.91	115.047	-144.578	-162.195	135.683	66.193	-78.509	121.919	98.751	-204.186	687.166	-345.024	145.471	616.284	-178.168	216.611	652.837	-100.104	-301.801	738.466	-305.134	-305.005	129.707	-85.843	-0.066417	-0.019821	0.027633	-0.028277	-0.056252	-0.017014
-353.939	115.089	-144.576	-164.71	135.066	68.408	-81.167	121.076	101.385	-204.147	687.134	-345.419	145.222	616.536	-176.308	216.046	653.525	-98.165	-301.85	738.584	-305.985	-305.297	130.092	-85.377	-0.062979	-0.023507	0.018931	-0.028256	-0.050372	-0.029621
-353.951	115.136	-144.574	-167.306	134.506	70.616	-83.881	120.283	103.998	-204.09	687.142	-345.853	144.884	616.806	-174.364	215.374	654.238	-96.122	-301.907	738.732	-306.903	-305.019	130.029	-85.498	-0.063056	-0.017588	0.01882	-0.009608	-0.055236	-0.039027
-353.973	115.168	-144.582	-169.833	133.806	72.677	-86.629	119.53	106.555	-204.012	687.18	-346.45	144.407	617.043	-172.205	214.572	654.949	-93.945	-301.943	738.895	-307.916	-304.805	129.768	-85.844	-0.058079	-0.018252	0.01881	0.004869	-0.065108	-0.064643
-354.013	115.218	-144.609	-172.438	133.212	74.78	-89.463	118.849	109.006	-203.939	687.221	-346.98	143.815	617.305	-170.176	213.601	655.649	-91.655	-301.937	739.073	-308.974	-304.858	129.822	-85.874	-0.052264	-0.016035	0.016601	0.013704	-0.086359	-0.078283
-354.052	115.254	-144.624	-175.355	132.829	76.983	-92.276	118.283	111.348	-203.819	687.258	-347.52	143.282	617.612	-167.94	212.462	656.325	-89.222	-301.983	739.245	-310.155	-304.897	129.884	-85.941	-0.045628	-0.010888	0.012174	0.025281	-0.101977	-0.071104
-354.098	115.257	-144.652	-178.35	132.537	79.222	-95.041	117.835	113.601	-203.656	687.361	-348.229	142.546	617.961	-165.818	211.249	657.027	-86.64	-301.979	739.388	-311.365	-304.942	129.967	-86.004	-0.038884	-0.000618	0.011334	0.042845	-0.123577	-0.059544
-354.171	115.298	-144.711	-180.689	131.893	81.4	-97.683	117.537	115.76	-203.489	687.468	-348.893	141.664	618.26	-163.502	209.871	657.7	-83.98	-301.989	739.604	-312.683	-305.021	130.031	-86.081	-0.03449	0.000903	0.015686	0.046301	-0.139745	-0.081872
-354.251	115.331	-144.746	-183.171	131.695	83.375	-100.259	117.254	117.802	-203.291	687.571	-349.574	140.719	618.572	-161.067	208.341	658.424	-81.233	-301.975	739.816	-314.066	-305.071	130.094	-86.152	-0.032286	-0.003644	0.014348	0.056451	-0.162747	-0.092279
-354.32	115.384	-144.792	-185.651	131.533	85.243	-102.738	117.122	119.733	-203.024	687.673	-350.266	139.599	618.87	-158.608	206.667	659.09	-78.435	-301.977	739.971	-315.518	-305.14	130.179	-86.202	-0.026434	-0.013508	0.012427	0.065774	-0.159556	-0.099979
-354.395	115.399	-144.822	-188.004	131.497	87.009	-105.089	117.057	121.605	-202.766	687.761	-351.105	138.37	619.169	-156.131	204.87	659.761	-75.471	-301.898	740.199	-317.01	-305.224	130.263	-86.272	-0.021154	-0.01898	0.006084	0.070303	-0.155139	-0.105405
-354.468	115.452	-144.871	-190.242	131.476	88.709	-107.373	117.071	123.349	-202.546	687.871	-351.888	137.107	619.556	-153.592	202.948	660.436	-72.477	-301.88	740.365	-318.593	-305.294	130.342	-86.344	-0.013149	-0.029412	0.011416	0.07129	-0.153035	-0.100699
-354.519	115.503	-144.906	-192.433	131.515	90.263	-109.573	117.12	125.034	-202.334	687.973	-352.933	135.662	619.838	-150.859	200.837	661.109	-69.426	-301.811	740.544	-320.231	-305.375	130.42	-86.401	-0.011425	-0.031003	-0.003075	0.078272	-0.141162	-0.115987
-354.594	115.526	-144.958	-194.5	131.555	91.701	-111.652	117.201	126.624	-202.07	688.052	-353.841	134.166	620.036	-147.99	198.484	661.791	-66.338	-301.755	740.774	-321.864	-305.463	130.51	-86.451	-0.009909	-0.034472	-0.005992	0.085613	-0.126027	-0.129655
-354.646	115.565	-144.994	-196.413	131.61	93.019	-113.653	117.322	128.142	-201.836	688.176	-354.883	132.386	620.12	-144.95	195.905	662.457	-63.243	-301.711	740.973	-323.608	-305.555	130.601	-86.514	-0.012727	-0.02973	-0.004708	0.094859	-0.110474	-0.119005
-354.726	115.596	-145.045	-198.2	131.74	94.21	-115.585	117.48	129.521	-201.582	688.215	-355.952	130.553	620.272	-142.398	193.253	663.147	-60.15	-301.575	741.176	-325.401	-305.61	130.71	-86.573	-0.009731	-0.027418	-0.011322	0.101919	-0.101358	-0.119023
-354.787	115.616	-145.113	-199.852	131.756	95.265	-117.398	117.624	130.794	-201.31	688.294	-357.062	128.546	620.5	-139.885	190.437	663.824	-57.098	-301.472	741.373	-327.162	-305.713	130.802	-86.628	-0.001614	-0.020843	-0.009188	0.09935	-0.091391	-0.12204
-354.863	115.656	-145.17	-201.476	131.882	96.279	-119.173	117.735	131.907	-201.059	688.355	-358.181	126.353	620.855	-137.293	187.518	664.469	-54.108	-301.243	741.53	-328.977	-305.733	130.88	-86.73	-0.000306	-0.026698	-0.010576	0.103051	-0.087925	-0.123878
-354.944	115.686	-145.224	-203.084	131.965	97.156	-120.968	117.828	132.947	-200.732	688.413	-359.281	124.006	621.242	-134.609	184.526	665.136	-51.145	-301.047	741.68	-330.823	-306.082	130.973	-86.783	-0.002563	-0.026759	-0.006195	0.101403	-0.082182	-0.127052
-354.99	115.701	-145.27	-204.642	132.095	98.065	-122.67	117.894	133.895	-200.452	688.519	-360.36	121.56	621.65	-132.069	181.4	665.832	-48.186	-300.835	741.862	-332.669	-306.194	131.056	-86.841	0.003163	-0.032989	-0.008901	0.106	-0.074211	-0.129079
-355.052	115.706	-145.308	-206.2	132.159	98.949	-124.374	117.898	134.758	-200.134	688.607	-361.518	118.654	621.878	-129.691	178.111	666.537	-45.244	-300.626	742.016	-334.566	-306.29	131.144	-86.883	-0.002105	-0.040406	0.00141	0.098202	-0.075641	-0.141358
-355.122	115.705	-145.346	-207.857	132.24	99.815	-126.024	117.837	135.625	-199.81	688.725	-362.608	115.779	622.295	-126.981	174.749	667.234	-42.346	-300.379	742.206	-336.476	-306.392	131.231	-86.939	0.005884	-0.043673	0.005229	0.099722	-0.074663	-0.129474
-355.184	115.7	-145.422	-209.544	132.264	100.689	-127.689	117.688	136.461	-199.427	688.862	-363.619	113.184	622.888	-124.266	171.194	667.906	-39.532	-300.109	742.339	-338.423	-306.48	131.322	-87.028	0.01096	-0.043759	0.007458	0.103711	-0.069359	-0.136408
-355.256	115.688	-145.508	-211.23	132.263	101.593	-129.295	117.461	137.371	-199.078	689.004	-364.708	110.541	623.413	-121.918	167.613	668.591	-36.841	-299.835	742.503	-340.349	-306.588	131.369	-87.118	0.006501	-0.042653	0.011679	0.113408	-0.052396	-0.147559
-355.3	115.666	-145.596	-212.921	132.18	102.504	-130.956	117.15	138.347	-198.734	689.142	-365.826	107.984	623.674	-119.838	163.965	669.291	-34.181	-299.572	742.647	-342.302	-306.622	131.437	-87.225	0.004857	-0.046492	0.010077	0.113422	-0.047615	-0.130628
-355.335	115.63	-145.704	-214.631	132.032	103.522	-132.731	116.98	139.44	-198.371	689.288	-366.997	105.239	623.882	-117.707	160.266	669.96	-31.604	-299.253	742.824	-344.226	-306.695	131.467	-87.314	0.010617	-0.043763	0.004778	0.110508	-0.047405	-0.144366
-355.369	115.58	-145.79	-216.386	131.786	104.559	-134.402	116.598	140.611	-197.95	689.377	-368.185	101.75	624.255	-115.411	156.539	670.679	-29.039	-298.964	742.948	-346.149	-306.739	131.484	-87.437	0.014691	-0.048612	0.003052	0.099833	-0.034103	-0.145295
-355.408	115.504	-145.898	-218.201	131.567	105.784	-136.139	116.157	141.884	-197.584	689.524	-369.259	97.641	625.304	-112.447	152.723	671.35	-26.575	-298.706	743.121	-348.111	-306.755	131.492	-87.525	0.013743	-0.045076	0.004743	0.097872	-0.018495	-0.136798
-355.409	115.464	-145.99	-220.061	131.312	107.118	-137.87	115.604	143.338	-197.119	689.664	-370.461	94.464	625.819	-110.324	148.898	671.984	-24.208	-298.488	743.291	-350.025	-306.581	131.562	-87.554	0.020241	-0.034317	0.002023	0.082884	-0.012494	-0.138651
-355.426	115.376	-146.063	-222.007	131.103	108.603	-139.687	115.005	144.924	-196.696	689.754	-371.613	91.286	626.351	-108.328	145.084	672.668	-21.914	-298.169	743.444	-351.906	-306.566	131.572	-87.641	0.030923	-0.03234	-0.00496	0.085612	-0.004409	-0.136702
-355.448	115.299	-146.165	-223.902	130.607	110.205	-141.598	114.375	146.678	-196.214	689.892	-372.928	88.113	626.878	-106.394	141.258	673.278	-19.738	-297.952	743.641	-353.787	-306.805	131.488	-87.876	0.04007	-0.030951	-0.006162	0.085317	-0.003073	-0.138249
-355.44	115.229	-146.226	-225.752	130.043	111.928	-143.509	113.7	148.574	-195.813	689.989	-374.088	84.911	627.421	-104.566	137.489	673.909	-17.706	-297.635	743.763	-355.636	-306.781	131.5	-87.984	0.039556	-0.034343	-0.001623	0.087772	-0.004772	-0.157722
-355.447	115.164	-146.294	-227.709	129.446	113.835	-145.539	113.014	150.64	-195.391	690.084	-375.312	81.769	627.906	-102.888	133.767	674.51	-15.777	-297.386	743.881	-357.397	-306.794	131.51	-88.058	0.041388	-0.03037	-0.003746	0.08262	-0.009248	-0.168341
-355.453	115.144	-146.348	-229.734	128.93	115.935	-147.611	112.305	152.873	-195.033	690.154	-376.303	78.706	628.377	-101.235	130.113	675.057	-13.939	-297.184	743.995	-359.067	-306.603	131.569	-88.03	0.043858	-0.030421	-0.003757	0.072409	0.002266	-0.166498
-355.448	115.133	-146.383	-231.827	128.347	118.217	-149.792	111.58	155.223	-194.735	690.256	-377.264	75.599	628.822	-99.69	126.503	675.578	-12.241	-296.972	744.091	-360.651	-306.569	131.643	-88.066	0.047724	-0.032309	-0.008246	0.054912	0.023933	-0.16127
-355.455	115.162	-146.401	-233.995	127.749	120.647	-151.979	110.838	157.75	-194.532	690.254	-378.279	72.648	629.277	-98.296	122.953	676.065	-10.59	-296.738	744.128	-362.174	-306.549	131.692	-88.08	0.049942	-0.038802	-0.012148	0.039775	0.056643	-0.131552
-355.431	115.205	-146.43	-236.209	127.163	123.248	-154.239	110.052	160.425	-194.306	690.313	-379.089	69.776	629.649	-96.966	119.523	676.532	-9.035	-296.537	744.169	-363.664	-306.529	131.798	-88.037	0.052813	-0.045733	-0.019078	0.026878	0.062992	-0.115382
-355.418	115.259	-146.425	-238.44	126.525	125.988	-156.513	109.254	163.212	-194.159	690.418	-379.661	66.985	630.064	-95.743	116.174	676.941	-7.511	-296.326	744.19	-365.115	-306.517	131.92	-87.997	0.058573	-0.048882	-0.018819	0.022043	0.042401	-0.080858
-355.418	115.324	-146.454	-240.748	125.871	128.75	-158.868	108.481	166.168	-193.651	690.798	-380.061	64.263	630.396	-94.563	112.885	677.287	-6.109	-296.119	744.2	-366.485	-306.503	132.031	-87.987	0.0688	-0.048481	-0.022945	0.032095	0.021286	-0.147819
-355.446	115.409	-146.471	-243.047	125.283	131.731	-161.255	107.725	169.233	-193.477	690.894	-380.619	61.599	630.776	-93.467	109.711	677.615	-4.792	-295.725	744.122	-368.144	-306.495	132.152	-87.979	0.068581	-0.049875	-0.01412	0.038361	0.018812	-0.121714
-355.497	115.489	-146.525	-245.37	124.596	134.834	-163.667	106.925	172.393	-193.333	691.148	-381.056	59.06	631.085	-92.49	106.641	677.918	-3.554	-295.601	744.108	-369.41	-306.533	132.276	-87.979	0.066737	-0.051926	-0.00827	0.02798	0.029815	-0.110376
-355.559	115.556	-146.548	-247.745	123.979	138.057	-166.134	106.136	175.684	-192.706	691.257	-381.516	56.728	631.344	-91.628	103.63	678.191	-2.347	-295.072	743.738	-370.801	-306.574	132.394	-88.001	0.070398	-0.060605	-0.008922	0.006908	0.054224	-0.106689
-355.611	115.638	-146.612	-250.144	123.348	141.344	-168.611	105.365	179.079	-192.557	691.212	-382.142	54.339	631.595	-90.774	100.723	678.473	-1.195	-294.944	743.672	-371.93	-306.588	132.516	-88.04	0.059184	-0.066557	-0.005514	-0.011793	0.055869	-0.078402
-355.693	115.716	-146.642	-252.454	122.664	144.658	-171.086	104.605	182.524	-192.289	691.149	-382.849	52.092	631.792	-89.884	97.911	678.753	-0.091	-294.821	743.627	-372.973	-306.655	132.643	-88.09	0.065153	-0.071174	-0.002104	-0.01781	0.051402	-0.055919
-355.784	115.8	-146.673	-254.616	122.009	148.044	-173.537	103.912	186.015	-192.072	691.035	-383.483	49.968	631.958	-89.095	95.244	678.944	0.927	-294.539	743.427	-374.249	-306.766	132.754	-88.131	0.054177	-0.066732	0.003908	-0.009824	0.052404	-0.056817
-355.856	115.888	-146.703	-256.815	121.461	151.377	-175.979	103.255	189.473	-191.956	690.998	-384.053	48.06	632.078	-88.371	92.684	679.138	1.892	-294.446	743.32	-375.187	-306.856	132.877	-88.157	0.072714	-0.070479	-0.004979	-0.014829	0.048213	-0.050621
-355.934	116.002	-146.721	-258.904	120.939	154.757	-178.348	102.718	192.97	-191.824	690.899	-384.577	46.118	632.189	-87.663	90.197	679.271	2.89	-294.364	743.254	-376.068	-306.978	133.029	-88.18	0.086372	-0.078552	-0.00225	-0.019745	0.051164	-0.039075
-356.023	116.105	-146.737	-261.039	120.533	158.047	-180.761	102.213	196.274	-191.652	690.736	-385.141	44.282	632.248	-87.008	87.759	679.341	3.818	-294.282	743.122	-376.9	-307.084	133.19	-88.208	0.088908	-0.077813	-0.007035	-0.033046	0.074823	-0.03301
-356.138	116.209	-146.739	-263.353	120.384	161.332	-183.124	101.793	199.467	-191.556	690.557	-385.716	42.669	632.337	-86.421	85.426	679.475	4.733	-294.197	742.999	-377.688	-307.226	133.375	-88.203	0.09849	-0.06329	-0.008384	-0.05757	0.092924	-0.025949
-356.259	116.34	-146.74	-265.86	120.363	164.667	-185.41	101.493	202.632	-191.427	690.394	-386.152	41.071	632.383	-85.802	83.148	679.617	5.664	-294.135	742.871	-378.466	-307.38	133.521	-88.268	0.097696	-0.067234	-0.002557	-0.075967	0.089699	-0.012562
-356.39	116.459	-146.747	-268.585	120.716	168.032	-187.609	101.199	205.745	-191.284	690.263	-386.506	39.637	632.419	-85.198	80.89	679.84	6.535	-294.07	742.692	-379.195	-307.557	133.688	-88.251	0.089457	-0.054839	-0.008104	-0.098388	0.087788	0.004581
-356.55	116.611	-146.752	-269.6	119.649	171.391	-189.695	100.966	208.75	-191.168	690.136	-386.866	38.225	632.5	-84.665	78.729	680.062	7.354	-294.036	742.549	-379.939	-307.713	133.876	-88.252	0.087449	-0.029745	-0.005287	-0.098552	0.087898	0.021848
-356.715	116.785	-146.777	-271.647	119.692	174.564	-191.707	100.802	211.689	-190.988	689.911	-387.388	36.961	632.518	-84.126	76.609	680.347	8.172	-294.014	742.395	-380.645	-307.862	134.07	-88.269	0.08922	-0.011438	0.000176	-0.098965	0.08208	0.0372
-356.887	116.941	-146.786	-273.654	119.765	177.683	-193.577	100.685	214.573	-190.958	689.755	-387.74	35.742	632.569	-83.692	74.477	680.651	8.942	-293.982	742.215	-381.319	-308.054	134.224	-88.326	0.092654	-0.008123	-0.003946	-0.094577	0.073182	0.052328
-357.076	117.088	-146.797	-275.874	120.16	180.723	-195.438	100.569	217.423	-190.938	689.59	-388.213	34.553	632.699	-83.233	72.309	680.926	9.587	-294.006	742.074	-381.982	-308.254	134.426	-88.355	0.095218	-0.002427	-0.006841	-0.080573	0.073415	0.0493
-357.259	117.248	-146.805	-277.996	120.619	183.739	-196.841	100.745	220.577	-190.946	689.451	-388.503	33.421	632.816	-82.801	70.248	681.255	10.286	-294.053	741.932	-382.654	-308.466	134.589	-88.375	0.094314	0.009869	-0.014298	-0.086116	0.072758	0.056465
-357.405	117.409	-146.77	-280.066	121.064	186.664	-198.514	100.737	223.369	-190.957	689.254	-388.803	32.336	632.962	-82.433	68.221	681.637	10.962	-294.11	741.792	-383.268	-308.601	134.772	-88.367	0.0965	0.030082	-0.011655	-0.105278	0.07196	0.075309
-357.532	117.566	-146.754	-281.957	121.426	189.507	-200.081	100.744	226.129	-191.046	689.225	-389.052	31.199	633.056	-82.264	66.156	682.023	11.624	-294.2	741.686	-383.907	-308.756	134.953	-88.362	0.089629	0.060201	-0.01561	-0.119337	0.078713	0.064923
-357.667	117.712	-146.73	-283.565	121.697	192.265	-201.521	100.771	228.843	-191.13	689.083	-389.363	30.191	633.231	-81.96	64.148	682.418	12.269	-294.338	741.622	-384.557	-308.891	135.096	-88.313	0.071035	0.082053	-0.014308	-0.113461	0.070633	0.065845
-357.794	117.835	-146.674	-285.141	121.942	194.906	-202.896	100.771	231.493	-191.26	689.035	-389.678	29.374	633.381	-81.742	62.094	682.85	12.862	-294.474	741.556	-385.124	-309.013	135.241	-88.27	0.055267	0.088617	-0.027158	-0.099903	0.052138	0.068318
-357.923	117.975	-146.631	-286.512	122.047	197.41	-204.236	100.797	234.051	-191.404	689.019	-389.867	28.555	633.494	-81.605	60.061	683.351	13.463	-294.679	741.502	-385.719	-309.138	135.356	-88.232	0.045443	0.100834	-0.030549	-0.092358	0.031308	0.068928
-358.041	118.121	-146.611	-287.764	122.091	199.786	-205.437	100.792	236.512	-191.579	689.014	-390.134	27.778	633.697	-81.308	58.032	683.899	14.002	-294.891	741.453	-386.329	-309.233	135.461	-88.198	0.030872	0.084989	-0.029456	-0.096921	0.030896	0.082454
-358.146	118.24	-146.556	-288.948	122.082	202.084	-206.558	100.741	238.834	-191.866	689.038	-390.346	27.035	633.804	-81.083	55.966	684.462	14.525	-295.109	741.39	-386.924	-309.321	135.556	-88.143	0.02761	0.0706	-0.037144	-0.1093	0.037054	0.087858
-358.223	118.331	-146.5	-290.022	122.088	204.246	-207.609	100.62	241.045	-192.166	689.086	-390.506	26.421	633.867	-80.896	53.857	685.173	14.961	-295.398	741.403	-387.516	-309.391	135.633	-88.112	0.026928	0.071732	-0.039305	-0.10499	0.042496	0.090998
-358.288	118.418	-146.452	-290.952	121.978	206.309	-208.541	100.472	243.092	-192.537	689.159	-390.65	25.751	634.045	-80.745	51.737	685.797	15.454	-295.7	741.394	-388.163	-309.433	135.713	-88.055	0.01886	0.097901	-0.043356	-0.092949	0.038426	0.094083
-358.331	118.484	-146.412	-291.164	121.26	208.354	-209.805	100.042	244.761	-192.886	689.169	-390.871	25.138	634.253	-80.592	49.579	686.376	15.79	-296.232	741.511	-388.595	-309.48	135.756	-87.991	0.002053	0.119807	-0.035756	-0.069856	0.034009	0.077884
-358.346	118.541	-146.37	-291.923	121.084	210.112	-210.52	99.772	246.495	-193.256	689.087	-391.083	24.439	634.551	-80.443	47.471	687.017	16.217	-296.604	741.54	-389.238	-309.489	135.795	-87.964	-0.017278	0.149868	-0.02062	-0.064781	0.011863	0.068646
-358.366	118.583	-146.335	-292.464	120.876	211.736	-211.157	99.417	247.992	-193.757	689.134	-391.254	23.691	635.043	-79.959	45.366	687.644	16.651	-297.044	741.615	-389.821	-309.546	135.8	-87.913	-0.029642	0.134263	-0.024019	-0.065844	-0.003862	0.054067
-358.394	118.612	-146.299	-293.023	120.69	213.183	-211.706	98.993	249.292	-194.241	689.055	-391.363	22.855	635.404	-79.888	43.231	688.241	17.037	-297.461	741.618	-390.47	-309.521	135.826	-87.867	-0.030159	0.118561	-0.018196	-0.074236	-0.021673	0.051405
-358.402	118.644	-146.285	-293.413	120.453	214.507	-212.143	98.64	250.426	-194.779	688.947	-391.732	21.904	635.858	-79.758	41.081	688.847	17.394	-297.935	741.688	-391.062	-309.497	135.838	-87.835	-0.039065	0.101295	-0.023919	-0.083388	-0.024782	0.033665
-358.408	118.667	-146.258	-293.738	120.244	215.678	-212.437	98.27	251.393	-195.367	689.02	-391.948	21.052	636.201	-79.766	39.009	689.429	17.738	-298.4	741.727	-391.769	-309.481	135.85	-87.755	-0.050338	0.100853	-0.032742	-0.077103	-0.024676	0.022269
-358.417	118.692	-146.225	-293.96	120.053	216.654	-212.649	97.937	252.211	-195.925	688.873	-392.277	20.201	636.647	-79.724	36.839	690.038	18.028	-298.952	741.848	-392.448	-309.439	135.857	-87.702	-0.055371	0.114194	-0.038011	-0.059618	-0.011306	0.010698
-358.435	118.734	-146.194	-294.057	119.887	217.537	-212.741	97.658	252.859	-196.522	688.838	-392.509	19.24	637.034	-79.704	34.719	690.628	18.323	-299.487	741.947	-393.182	-309.439	135.865	-87.689	-0.054514	0.123115	-0.035147	-0.048545	-0.004448	0.000994
-358.446	118.763	-146.188	-294.073	119.764	218.237	-212.765	97.33	253.393	-197.189	688.772	-392.746	18.331	637.441	-79.641	32.498	691.268	18.601	-300.125	742.14	-393.946	-309.434	135.863	-87.645	-0.057331	0.121854	-0.021903	-0.038218	-0.006249	-0.007341
-358.453	118.791	-146.151	-293.964	119.63	218.825	-212.703	97.086	253.854	-197.823	688.706	-393.095	17.407	637.894	-79.589	30.275	691.908	18.861	-300.691	742.272	-394.733	-309.402	135.89	-87.596	-0.073784	0.112527	-0.020144	-0.039286	-0.012231	-0.00437
-358.462	118.816	-146.163	-293.817	119.597	219.262	-212.601	96.882	254.195	-198.535	688.599	-393.381	16.643	638.277	-79.257	28.055	692.56	19.126	-301.323	742.475	-395.624	-309.432	135.89	-87.618	-0.083216	0.108689	-0.016706	-0.027939	-0.007386	-0.014671
-358.471	118.82	-146.169	-293.623	119.532	219.582	-212.438	96.683	254.478	-199.224	688.481	-393.692	16.146	638.465	-78.716	25.785	693.166	19.285	-301.993	742.702	-396.54	-309.44	135.873	-87.631	-0.093055	0.103862	-0.011554	-0.02594	0.008369	-0.010479
-358.49	118.809	-146.199	-293.369	119.515	219.853	-212.264	96.549	254.669	-199.988	688.387	-394.053	15.326	638.85	-78.521	23.553	693.743	19.47	-302.708	743.007	-397.531	-309.417	135.873	-87.66	-0.101061	0.104464	-0.004695	-0.01738	-0.000799	-0.014409
-358.519	118.804	-146.23	-293.122	119.533	220.058	-212.092	96.46	254.796	-200.793	688.303	-394.494	14.461	639.304	-78.38	21.349	694.314	19.587	-303.353	743.267	-398.549	-309.405	135.858	-87.723	-0.108993	0.090792	-0.002462	-0.013417	-0.012936	-0.018928
-358.515	118.791	-146.272	-292.905	119.616	220.16	-211.896	96.389	254.879	-201.68	688.239	-394.805	13.801	639.625	-78.192	19.186	694.812	19.679	-304.096	743.63	-399.66	-309.384	135.831	-87.759	-0.108004	0.07069	-0.009263	-0.015639	-0.03208	-0.012186
-358.519	118.759	-146.3	-292.722	119.764	220.291	-211.731	96.396	254.944	-202.63	688.182	-395.163	13.202	640.125	-78.031	17.097	695.263	19.752	-304.875	744.037	-400.804	-309.401	135.81	-87.78	-0.112061	0.05425	-0.008788	-0.011752	-0.029837	-0.017404
-358.531	118.743	-146.351	-292.567	119.9	220.418	-211.579	96.408	255.005	-203.7	688.206	-395.416	12.715	640.511	-77.802	15.066	695.638	19.761	-305.683	744.507	-402.043	-309.379	135.758	-87.872	-0.127081	0.031625	-0.006215	-0.01163	-0.030104	-0.020971
-358.545	118.732	-146.377	-292.42	120.039	220.546	-211.42	96.46	255.095	-204.801	688.28	-395.826	12.227	640.912	-77.598	13.035	695.995	19.734	-306.558	745.002	-403.359	-309.346	135.739	-87.888	-0.125736	0.021164	1.3e-05	0.005033	-0.019189	-0.024376
-358.529	118.703	-146.41	-292.298	120.181	220.689	-211.311	96.505	255.156	-206.139	688.434	-395.921	11.835	641.364	-77.394	11.112	696.309	19.702	-307.466	745.5	-404.776	-309.323	135.714	-87.97	-0.132654	0.025994	-0.004089	0.011952	-0.015506	-0.026433
-358.536	118.679	-146.469	-292.192	120.295	220.827	-211.199	96.573	255.218	-207.588	688.544	-396.012	11.459	641.634	-77.237	9.196	696.533	19.617	-308.438	746.027	-406.271	-309.283	135.682	-88.032	-0.125425	0.037012	-0.013876	0.015813	-0.010483	-0.028342
-358.53	118.65	-146.523	-292.148	120.389	220.945	-211.113	96.604	255.276	-209.165	688.695	-396.187	11.155	641.854	-77.023	7.32	696.725	19.528	-309.494	746.604	-407.733	-309.257	135.648	-88.06	-0.116002	0.0444	-0.020683	0.009276	-0.007021	-0.024507
-358.496	118.624	-146.56	-292.099	120.436	221.067	-211.044	96.601	255.289	-210.769	688.965	-396.46	10.926	642.151	-76.89	5.45	696.89	19.397	-310.571	747.178	-409.283	-309.229	135.59	-88.137	-0.112385	0.045295	-0.020077	0.000314	0.002891	-0.015459
-358.473	118.584	-146.599	-292.049	120.418	221.183	-210.972	96.637	255.317	-212.435	689.167	-396.705	10.518	642.254	-76.849	3.715	696.958	19.217	-311.749	747.783	-410.887	-309.212	135.525	-88.183	-0.115892	0.03949	-0.027266	-0.005771	0.012602	-0.00966
-358.451	118.538	-146.635	-292.018	120.364	221.265	-210.896	96.613	255.316	-214.106	689.415	-397.213	10.086	642.286	-76.826	2.041	697.015	19.048	-312.997	748.427	-412.614	-309.157	135.497	-88.204	-0.117214	0.027041	-0.027709	-0.002841	0.019304	0.001821
-358.41	118.484	-146.662	-291.987	120.303	221.277	-210.838	96.593	255.306	-215.816	689.648	-397.996	9.637	642.285	-76.867	0.425	696.958	18.859	-314.341	749.126	-414.326	-309.11	135.449	-88.247	-0.111736	0.020401	-0.02598	0.004319	0.007744	0.010062
-358.384	118.436	-146.696	-291.915	120.186	221.262	-210.767	96.553	255.288	-217.623	689.941	-398.693	9.167	642.204	-76.972	-1.093	696.873	18.652	-315.696	749.764	-416.192	-309.075	135.402	-88.258	-0.107475	0.018888	-0.024273	0.009804	0.000457	-0.002085
-358.348	118.405	-146.71	-291.848	120.057	221.189	-210.721	96.493	255.257	-219.59	690.32	-399.249	8.693	642.036	-77.117	-2.518	696.718	18.438	-317.124	750.521	-418.12	-309.038	135.378	-88.289	-0.087424	0.034351	-0.020972	0.011461	-0.018204	-0.003042
-358.331	118.366	-146.729	-291.8	119.924	221.058	-210.67	96.448	255.214	-221.63	690.709	-399.869	8.225	641.849	-77.3	-3.91	696.529	18.172	-318.61	751.341	-420.064	-309.009	135.364	-88.278	-0.070047	0.046636	-0.025441	0.011591	-0.019064	0.001942
-358.315	118.354	-146.73	-291.766	119.809	220.902	-210.638	96.406	255.164	-223.69	690.862	-400.554	7.931	641.704	-77.527	-5.173	696.26	17.893	-320.15	752.156	-422.14	-309.021	135.362	-88.316	-0.056652	0.033389	-0.021516	0.011419	-0.006601	-0.003783
-358.313	118.349	-146.757	-291.733	119.655	220.734	-210.586	96.381	255.118	-225.759	690.929	-401.348	7.541	641.473	-77.714	-6.399	695.931	17.618	-321.621	752.963	-424.214	-309.026	135.358	-88.321	-0.049549	0.022792	-0.025446	0.010423	0.003907	-0.000449
-358.302	118.329	-146.75	-291.688	119.533	220.572	-210.594	96.339	255.049	-227.923	691.129	-401.856	7.248	641.226	-78.02	-7.553	695.562	17.346	-322.983	753.698	-426.4	-309.061	135.365	-88.315	-0.054645	0.015868	-0.028643	0.00695	0.023886	-0.007594
-358.32	118.325	-146.775	-291.684	119.386	220.402	-210.585	96.259	254.961	-229.943	691.567	-402.251	6.961	640.859	-78.275	-8.633	695.096	17.051	-324.152	754.199	-428.837	-309.083	135.388	-88.32	-0.056126	0.008982	-0.026761	0.003007	0.035125	0.00855
-358.339	118.332	-146.78	-291.68	119.233	220.232	-210.603	96.199	254.884	-231.931	692.121	-402.777	6.709	640.427	-78.716	-9.6	694.594	16.763	-325.63	755.093	-431.104	-309.111	135.393	-88.324	-0.061991	0.005312	-0.019978	-0.014437	0.043185	0.015871
-358.358	118.334	-146.782	-291.816	119.21	220.059	-210.578	96.092	254.775	-233.979	692.782	-403.605	6.276	639.91	-79.13	-10.495	694.073	16.449	-327.031	755.99	-433.435	-309.163	135.415	-88.314	-0.064009	0.013369	-0.014108	-0.025509	0.048889	0.03087
-358.382	118.34	-146.822	-291.843	119.079	219.883	-210.546	95.984	254.659	-236.1	693.384	-404.86	5.926	639.233	-79.636	-11.289	693.511	16.14	-328.348	756.885	-435.892	-309.187	135.463	-88.302	-0.058815	0.026458	-0.004662	-0.034875	0.050805	0.040203
-358.403	118.345	-146.833	-291.84	118.937	219.694	-210.559	95.859	254.48	-238.09	693.693	-406.295	5.509	638.656	-80.17	-12.004	692.916	15.801	-329.645	757.778	-438.376	-309.238	135.465	-88.325	-0.05938	0.046668	-0.011316	-0.035641	0.05827	0.033895
-358.425	118.331	-146.835	-291.891	118.834	219.477	-210.581	95.684	254.323	-239.953	694.119	-407.708	5.347	638.09	-80.641	-12.68	692.305	15.437	-330.834	758.646	-440.914	-309.272	135.497	-88.304	-0.044707	0.041132	-0.009626	-0.025637	0.057651	0.038132
-358.451	118.322	-146.848	-291.921	118.637	219.257	-210.524	95.562	254.223	-241.799	694.451	-409.271	4.753	637.343	-81.359	-13.254	691.721	15.129	-331.982	759.48	-443.443	-309.337	135.483	-88.345	-0.026656	0.037574	-0.006475	-0.024174	0.05253	0.037914
-358.455	118.315	-146.847	-291.942	118.506	219.073	-210.493	95.423	254.149	-243.578	694.685	-411.078	3.564	636.556	-82.271	-13.788	691.092	14.783	-333.016	760.325	-445.989	-309.322	135.504	-88.325	-0.011665	0.041176	-0.006337	-0.021782	0.052337	0.037066
-358.458	118.294	-146.861	-291.978	118.402	218.937	-210.478	95.311	254.096	-245.635	693.748	-415.86	-1.825	636.587	-84.06	-14.279	690.434	14.417	-333.926	761.114	-448.473	-309.367	135.494	-88.34	-0.010843	0.045072	0.001611	-0.018579	0.046218	0.039218
-358.451	118.276	-146.848	-292.008	118.284	218.813	-210.682	95.138	253.96	-247.099	694.338	-417.102	-1.971	636.226	-84.5	-14.69	689.776	14.075	-334.687	761.951	-451.144	-309.353	135.488	-88.321	-0.013989	0.042415	0.002985	-0.020939	0.046495	0.041958
-358.43	118.251	-146.832	-292.023	118.179	218.71	-210.705	95.035	253.935	-248.562	694.757	-418.39	-2.21	635.974	-85.056	-15.013	689.099	13.746	-335.419	762.803	-453.556	-309.363	135.466	-88.316	-0.006402	0.046014	0.003615	-0.031345	0.052566	0.052433
-358.415	118.216	-146.831	-292.019	118.121	218.628	-210.672	94.975	253.91	-249.976	695.17	-419.771	-2.278	635.62	-86.462	-15.289	688.452	13.413	-336.052	763.636	-455.924	-309.357	135.458	-88.316	0.002315	0.054527	0.004898	-0.039789	0.066443	0.049219
-358.383	118.187	-146.837	-291.934	117.999	218.573	-210.641	94.906	253.887	-251.255	695.491	-421.298	-2.081	635.246	-86.985	-15.525	687.841	13.094	-336.599	764.446	-458.249	-309.37	135.401	-88.321	0.015045	0.070859	0.011901	-0.042452	0.064886	0.052912
-358.35	118.13	-146.81	-291.831	117.89	218.479	-210.613	94.8	253.825	-252.327	695.786	-422.762	-2.325	634.746	-87.453	-15.707	687.259	12.767	-337.103	765.184	-460.512	-309.356	135.372	-88.321	0.024201	0.07169	0.00809	-0.05284	0.064567	0.05078
-358.318	118.081	-146.788	-291.748	117.815	218.444	-210.606	94.74	253.827	-253.31	696.273	-423.981	-2.333	634.468	-87.903	-15.84	686.734	12.495	-337.564	765.843	-462.731	-309.343	135.324	-88.305	0.025813	0.077442	0.000562	-0.053548	0.06252	0.047695
-358.281	118.055	-146.777	-291.751	117.772	218.433	-210.598	94.7	253.842	-254.108	696.568	-424.953	-2.509	634.121	-88.26	-16.018	686.23	12.201	-337.906	766.504	-464.853	-309.265	135.304	-88.257	0.025554	0.082346	0.004688	-0.046132	0.052268	0.045047
-358.234	118.032	-146.736	-291.765	117.749	218.477	-210.612	94.711	253.913	-254.608	696.814	-425.88	-2.383	633.927	-88.661	-16.193	685.767	11.918	-338.206	767.129	-466.863	-309.244	135.255	-88.252	0.027427	0.090553	0.003052	-0.040282	0.052807	0.049028
-358.202	118.04	-146.702	-291.846	117.784	218.543	-210.648	94.7	253.924	-255.075	697.035	-426.662	-2.505	633.845	-89.059	-16.383	685.359	11.639	-338.411	767.715	-468.792	-309.214	135.253	-88.217	0.029134	0.094081	-0.002804	-0.034983	0.050988	0.04954
-358.167	118.025	-146.703	-291.894	117.782	218.591	-210.684	94.688	253.941	-255.479	697.137	-427.409	-2.805	633.542	-89.391	-16.547	684.998	11.383	-338.588	768.286	-470.59	-309.178	135.243	-88.184	0.018163	0.091751	0.005261	-0.036951	0.054843	0.052198
-358.142	118.036	-146.691	-291.971	117.808	218.621	-210.732	94.665	253.915	-255.924	697.242	-428.08	-2.807	633.531	-89.749	-16.689	684.668	11.136	-338.687	768.843	-472.295	-309.171	135.231	-88.166	0.006104	0.104014	0.008423	-0.043158	0.054808	0.055747
-358.137	118.03	-146.678	-292.014	117.835	218.615	-210.768	94.643	253.843	-256.316	697.418	-428.826	-2.851	633.502	-90.063	-16.87	684.355	10.868	-338.712	769.31	-473.85	-309.193	135.217	-88.157	-0.003304	0.125071	0.007509	-0.048378	0.055174	0.054573
-358.127	118.052	-146.701	-292.064	117.832	218.563	-210.756	94.652	253.78	-256.746	697.539	-429.449	-3.108	633.427	-90.346	-17.083	684.12	10.592	-338.679	769.758	-475.345	-309.173	135.21	-88.183	-0.010532	0.125382	0.008539	-0.055695	0.052403	0.054325
-358.111	118.05	-146.706	-292.042	117.772	218.49	-210.799	94.567	253.66	-257.059	697.606	-430.199	-3.29	633.346	-90.616	-17.29	683.945	10.317	-338.643	770.126	-476.666	-309.153	135.197	-88.167	0.005532	0.107631	0.007168	-0.061874	0.040687	0.044103
-358.119	118.024	-146.728	-292.032	117.693	218.402	-210.807	94.505	253.579	-257.359	697.62	-430.976	-3.168	633.4	-90.886	-17.508	683.793	10.047	-338.569	770.467	-477.885	-309.131	135.187	-88.186	0.007131	0.081578	-0.000862	-0.056327	0.023812	0.036375
-358.075	117.991	-146.735	-291.951	117.582	218.29	-210.782	94.453	253.525	-257.694	697.58	-431.691	-3.313	633.38	-91.139	-17.687	683.667	9.798	-338.508	770.71	-478.989	-309.129	135.167	-88.192	0.003078	0.053241	-0.004745	-0.039999	0.014945	0.036139
-358.067	117.969	-146.753	-291.938	117.506	218.197	-210.738	94.424	253.484	-259.028	698.783	-432.35	-3.413	633.367	-91.342	-17.883	683.567	9.532	-338.465	770.884	-479.968	-309.122	135.147	-88.193	-0.001586	0.051452	-0.007514	-0.036903	0.009001	0.039213
-358.032	117.952	-146.746	-291.824	117.361	218.116	-210.693	94.392	253.471	-259.385	698.854	-432.746	-3.375	633.397	-91.537	-18.034	683.46	9.246	-338.449	771.03	-480.806	-309.133	135.108	-88.194	-0.008653	0.052602	-0.017518	-0.038709	0.016069	0.035625
-358.028	117.937	-146.777	-291.758	117.258	218.032	-210.701	94.305	253.44	-259.861	698.958	-432.97	-3.301	633.491	-91.812	-18.172	683.399	8.957	-338.466	771.132	-481.561	-309.107	135.104	-88.203	-0.007345	0.055061	-0.017873	-0.041784	0.016488	0.027726
-358.016	117.909	-146.791	-291.677	117.176	217.949	-210.687	94.253	253.407	-260.196	698.99	-433.179	-3.231	633.512	-92.043	-18.267	683.361	8.64	-338.552	771.16	-482.159	-309.101	135.093	-88.216	-0.0006	0.052783	-0.020821	-0.041418	0.018202	0.029572
-358.012	117.901	-146.821	-291.654	117.141	217.875	-210.655	94.219	253.387	-260.571	699.004	-433.269	-3.141	633.596	-92.289	-18.301	683.358	8.321	-338.694	771.224	-482.625	-309.131	135.092	-88.23	0.004149	0.044454	-0.025728	-0.050352	0.005827	0.025722
-358.009	117.88	-146.841	-291.578	117.119	217.828	-210.587	94.255	253.406	-261.003	698.98	-433.4	-2.989	633.651	-92.534	-18.3	683.392	7.985	-338.89	771.213	-482.966	-309.138	135.078	-88.262	0.006762	0.031183	-0.023326	-0.053802	-0.002271	0.033084
-358.013	117.873	-146.854	-291.505	117.071	217.79	-210.586	94.291	253.399	-261.461	698.876	-433.386	-2.583	633.72	-92.808	-18.25	683.433	7.614	-339.118	771.178	-483.166	-309.153	135.106	-88.251	0.003857	0.023109	-0.029029	-0.055524	-0.029365	0.026106
-358.034	117.877	-146.862	-291.491	117.123	217.788	-210.543	94.338	253.455	-261.955	698.688	-433.294	-2.232	633.892	-93.127	-18.12	683.489	7.247	-339.401	771.116	-483.224	-309.173	135.124	-88.279	0.00463	0.012195	-0.033272	-0.046882	-0.045433	0.007578
-358.042	117.883	-146.847	-291.423	117.11	217.826	-210.512	94.408	253.537	-262.425	698.709	-432.982	-1.806	634.013	-93.462	-17.926	683.532	6.847	-339.709	771.022	-483.173	-309.173	135.137	-88.257	0.006992	0.00518	-0.036212	-0.027704	-0.053192	-0.000113
-358.029	117.915	-146.837	-291.378	117.145	217.858	-210.474	94.49	253.61	-262.959	698.562	-432.61	-1.361	634.19	-93.79	-17.687	683.572	6.416	-340.08	770.905	-483.005	-309.167	135.165	-88.244	0.007242	0.002004	-0.034916	-0.006047	-0.052086	0.000938
-358.033	117.927	-146.838	-291.35	117.202	217.914	-210.446	94.586	253.704	-262.446	697.092	-432.5	-0.706	634.332	-94.139	-17.399	683.608	6.002	-340.512	770.779	-482.684	-309.198	135.159	-88.226	-0.001552	0.012047	-0.018425	-0.002126	-0.041532	0.006709
-358.011	117.922	-146.806	-291.343	117.277	217.974	-210.404	94.665	253.77	-263.07	697.084	-431.668	-0.113	634.453	-94.548	-17.007	683.617	5.558	-340.952	770.647	-482.263	-309.212	135.17	-88.205	0.003273	0.017453	-0.018853	-0.005119	-0.052201	-0.004936
-358.014	117.946	-146.812	-291.318	117.352	217.987	-210.368	94.796	253.846	-263.649	697.043	-430.726	0.379	634.459	-94.971	-16.531	683.644	5.109	-341.469	770.518	-481.686	-309.224	135.182	-88.19	0.00833	0.012076	-0.018104	-0.000504	-0.054781	-0.00839
-358.02	117.934	-146.79	-291.275	117.409	218.002	-210.331	94.868	253.899	-264.063	696.793	-429.933	1.383	634.756	-95.349	-15.962	683.643	4.656	-342.017	770.378	-481.012	-309.222	135.186	-88.18	0.00766	-0.005135	-0.018578	0.002956	-0.054269	-0.003951
-358.01	117.943	-146.801	-291.253	117.446	218.011	-210.297	94.967	253.95	-264.652	696.813	-428.804	2.128	634.8	-95.758	-15.321	683.613	4.198	-342.551	770.206	-480.3	-309.203	135.18	-88.188	0.019103	-0.012263	-0.024917	0.011484	-0.055744	-0.006796
-357.989	117.941	-146.797	-291.185	117.483	217.99	-210.259	95.041	253.991	-265.244	696.782	-427.778	3.227	634.951	-96.146	-14.572	683.551	3.769	-343.125	770.058	-479.472	-309.227	135.16	-88.181	0.024018	-0.019191	-0.030938	0.009063	-0.054922	-0.015798
-357.976	117.935	-146.771	-291.163	117.536	218.003	-210.212	95.118	254.022	-265.82	696.767	-426.903	3.977	634.865	-96.557	-13.738	683.463	3.348	-343.723	769.896	-478.541	-309.202	135.17	-88.147	0.029588	-0.033676	-0.035886	0.005897	-0.053049	-0.007523
-357.939	117.914	-146.75	-291.14	117.58	218.046	-210.159	95.175	254.053	-267.296	697.801	-426.515	5.039	634.955	-96.985	-12.891	683.374	2.948	-344.347	769.741	-477.515	-309.182	135.143	-88.105	0.023883	-0.033833	-0.043647	0.000917	-0.040025	0.002028
-357.918	117.918	-146.748	-291.07	117.62	218.061	-210.136	95.208	254.089	-267.774	697.713	-425.448	5.907	634.888	-97.398	-11.959	683.288	2.544	-344.952	769.557	-476.365	-309.143	135.127	-88.105	0.01145	-0.015831	-0.048899	-0.001984	-0.035524	0.008596
-357.88	117.905	-146.741	-291.049	117.687	218.088	-210.114	95.228	254.104	-268.263	697.528	-424.366	6.915	634.963	-97.792	-11.035	683.221	2.18	-345.601	769.396	-475.148	-309.117	135.118	-88.073	0.000141	0.000665	-0.038678	-0.014127	-0.025879	0.006088
-357.869	117.908	-146.715	-291.026	117.736	218.123	-210.081	95.259	254.12	-268.728	697.417	-423.179	7.996	635.087	-98.179	-10.178	683.157	1.815	-346.307	769.22	-473.769	-309.102	135.105	-88.056	0.005455	0.013801	-0.032192	-0.023292	-0.018366	0.002116
-357.854	117.92	-146.699	-290.987	117.781	218.145	-210.021	95.304	254.166	-269.207	697.105	-422.083	8.593	635.004	-98.52	-9.367	683.082	1.48	-347.015	768.991	-472.349	-309.094	135.089	-88.03	0.021448	0.020695	-0.023625	-0.028139	-0.013672	-0.000385
-357.837	117.933	-146.682	-290.933	117.789	218.188	-209.984	95.313	254.164	-268.542	695.687	-421.303	9.384	635.052	-98.875	-8.656	682.957	1.159	-347.771	768.733	-470.774	-309.066	135.097	-88.024	0.041087	0.002301	-0.024756	-0.037402	-0.017581	-0.004532
-357.868	117.962	-146.656	-290.868	117.79	218.214	-209.904	95.312	254.189	-269.056	695.425	-419.851	10.007	635.052	-99.231	-7.992	682.82	0.85	-348.556	768.473	-469.158	-309.048	135.121	-88.01	0.047945	-0.016204	-0.031947	-0.036658	-0.021329	-0.004923
-357.854	117.976	-146.639	-290.761	117.768	218.205	-209.836	95.322	254.213	-269.465	695.366	-418.363	10.596	635.014	-99.594	-7.404	682.659	0.545	-349.316	768.16	-467.411	-309.041	135.129	-87.987	0.058478	-0.045394	-0.035707	-0.044933	-0.01109	0.000845
-357.882	118.008	-146.63	-290.641	117.8	218.242	-209.745	95.295	254.214	-269.956	695.209	-416.783	10.994	634.909	-99.928	-6.893	682.468	0.265	-350.063	767.788	-465.604	-309.051	135.141	-87.968	0.063278	-0.044302	-0.044565	-0.049536	0.005716	0.005195
-357.903	118.048	-146.62	-290.56	117.82	218.261	-209.623	95.308	254.259	-270.348	695.116	-415.333	11.212	634.73	-100.317	-6.443	682.301	-0.008	-350.8	767.407	-463.72	-309.039	135.167	-87.966	0.050817	-0.036882	-0.048134	-0.051849	0.013057	0.010297
-357.92	118.079	-146.602	-290.44	117.839	218.276	-209.539	95.28	254.269	-271.021	694.935	-413.614	11.405	634.645	-100.688	-6.065	682.116	-0.302	-351.562	766.969	-461.754	-309.043	135.186	-87.923	0.032087	-0.026865	-0.04531	-0.051795	0.02028	0.013328
-357.91	118.114	-146.558	-290.289	117.833	218.311	-209.405	95.298	254.331	-271.681	694.801	-411.915	11.513	634.465	-101.051	-5.753	681.901	-0.567	-352.303	766.517	-459.761	-309.037	135.177	-87.9	0.021904	-0.007267	-0.030654	-0.052197	0.022257	0.014947
-357.91	118.163	-146.534	-290.202	117.892	218.324	-209.282	95.274	254.374	-272.328	694.686	-410.38	11.465	634.234	-101.436	-5.437	681.674	-0.827	-353.044	766.001	-457.661	-309.041	135.214	-87.839	0.021573	0.003228	-0.02714	-0.054508	0.021201	0.015072
-357.907	118.18	-146.515	-290.038	117.851	218.357	-209.187	95.252	254.401	-272.869	694.487	-408.885	11.584	634.072	-101.795	-5.165	681.424	-1.103	-353.755	765.435	-455.541	-309.016	135.23	-87.813	0.040916	-0.001487	-0.031246	-0.05461	0.023055	0.021693
-357.901	118.218	-146.49	-289.927	117.86	218.404	-209.062	95.256	254.462	-273.323	694.32	-407.527	11.429	633.834	-102.229	-4.88	681.13	-1.338	-354.429	764.801	-453.381	-309.021	135.235	-87.76	0.056148	-0.02498	-0.017309	-0.061837	0.022018	0.028751
-357.924	118.23	-146.464	-289.832	117.893	218.414	-208.984	95.271	254.492	-273.669	694.01	-406.209	11.342	633.621	-102.65	-4.637	680.859	-1.571	-355.087	764.137	-451.161	-309.023	135.25	-87.732	0.06888	-0.028019	-0.014135	-0.066051	0.028256	0.040828
-357.914	118.236	-146.475	-289.694	117.902	218.448	-208.871	95.274	254.515	-273.841	693.639	-404.98	11.317	633.417	-102.989	-4.371	680.591	-1.784	-355.658	763.417	-448.922	-309.02	135.256	-87.738	0.076625	-0.019085	-0.000583	-0.061188	0.027199	0.047948
-357.926	118.259	-146.475	-289.569	117.903	218.477	-208.78	95.288	254.542	-273.936	693.134	-403.685	11.211	633.179	-103.366	-4.098	680.303	-2.011	-356.143	762.629	-446.616	-309.03	135.256	-87.716	0.077178	-0.007979	0.004608	-0.052462	0.027522	0.055836
-357.951	118.26	-146.487	-289.517	117.951	218.523	-208.714	95.323	254.559	-273.861	692.715	-402.257	11.177	632.958	-103.746	-3.829	680.023	-2.231	-356.593	761.854	-444.274	-309.04	135.259	-87.706	0.080009	0.006148	-0.001266	-0.049134	0.014673	0.05701
-357.96	118.263	-146.473	-289.456	118.003	218.55	-208.666	95.333	254.566	-273.603	692.218	-400.708	11.093	632.71	-104.145	-3.522	679.741	-2.459	-356.962	760.989	-441.877	-309.054	135.249	-87.706	0.086846	0.013037	0.004508	-0.053954	0.009654	0.048463
-357.957	118.278	-146.487	-289.452	118.109	218.614	-208.63	95.374	254.589	-273.263	691.811	-399.01	11.013	632.517	-104.533	-3.176	679.457	-2.667	-357.262	760.084	-439.436	-309.05	135.254	-87.721	0.103485	0.010911	0.011132	-0.044589	-0.006328	0.038005
-357.971	118.261	-146.496	-289.428	118.109	218.637	-208.636	95.382	254.611	-272.869	691.289	-397.297	11.132	632.297	-104.894	-2.799	679.166	-2.876	-357.509	759.137	-436.929	-309.044	135.26	-87.718	0.113126	-0.004396	0.001768	0.003825	-0.027429	0.018229
-357.977	118.259	-146.503	-289.455	118.163	218.656	-208.62	95.417	254.614	-272.423	690.848	-395.607	11.39	632.104	-105.223	-2.328	678.865	-3.208	-357.652	758.107	-434.397	-309.067	135.243	-87.711	0.109122	-0.019074	-0.003589	0.053014	-0.046147	0.025222
-357.96	118.236	-146.519	-289.47	118.216	218.685	-208.619	95.455	254.622	-271.892	690.313	-393.841	11.496	631.947	-105.603	-1.893	678.542	-3.427	-357.709	757.069	-431.805	-309.062	135.25	-87.741	0.104905	-0.017331	-0.007167	0.082034	-0.034258	0.027094
-357.955	118.225	-146.53	-289.462	118.196	218.707	-208.65	95.447	254.605	-271.236	689.683	-391.97	11.611	631.725	-106.033	-1.389	678.197	-3.659	-357.672	755.996	-429.113	-309.05	135.243	-87.741	0.100579	-0.001636	-0.000798	0.090769	-0.028222	0.03636
-357.956	118.193	-146.547	-289.497	118.222	218.686	-208.695	95.438	254.583	-270.378	689.034	-389.989	11.913	631.657	-106.405	-0.877	677.897	-3.893	-357.551	754.923	-426.363	-309.059	135.239	-87.756	0.103253	0.002628	1e-06	0.092289	-0.022394	0.022938
-357.939	118.187	-146.563	-289.54	118.171	218.662	-208.708	95.438	254.534	-269.429	688.308	-387.482	12.205	631.497	-106.828	-0.233	677.566	-4.122	-357.369	753.878	-423.515	-309.082	135.234	-87.753	0.113962	0.017911	0.005975	0.096513	-0.026136	0.013459
-357.95	118.176	-146.593	-289.538	118.149	218.636	-208.724	95.403	254.509	-267.994	688.202	-383.246	12.589	631.313	-107.15	0.386	677.281	-4.332	-357.13	752.852	-420.626	-309.081	135.236	-87.787	0.122154	0.029053	0.035443	0.101562	-0.031236	0.020074
-357.945	118.148	-146.612	-289.541	118.065	218.565	-208.754	95.399	254.449	-267.11	687.606	-381.126	13.049	631.072	-107.459	1.053	676.978	-4.576	-356.825	751.799	-417.675	-309.084	135.239	-87.793	0.136242	0.03739	0.044973	0.106207	-0.042941	0.008609
-357.935	118.121	-146.638	-289.606	118.012	218.514	-208.782	95.349	254.426	-266.116	686.971	-379.031	13.49	630.889	-107.817	1.801	676.684	-4.775	-356.477	750.735	-414.692	-309.084	135.251	-87.816	0.152068	0.023535	0.039752	0.084942	-0.0392	0.00728
-357.939	118.106	-146.673	-289.577	117.922	218.448	-208.795	95.323	254.378	-265.093	686.398	-376.806	14.056	630.678	-108.131	2.53	676.38	-4.946	-356.076	749.688	-411.68	-309.094	135.242	-87.82	0.16808	-0.000759	0.033936	0.069058	-0.024372	0.014728
-357.933	118.083	-146.686	-289.567	117.845	218.389	-208.83	95.264	254.318	-264.047	685.742	-374.661	14.466	630.462	-108.411	3.318	676.07	-5.15	-355.65	748.693	-408.579	-309.106	135.22	-87.887	0.171861	-0.036551	0.029319	0.056026	-0.005942	0.019436
-357.945	118.069	-146.72	-289.567	117.766	218.344	-208.813	95.213	254.278	-262.753	684.821	-372.614	15.231	630.363	-108.719	4.11	675.762	-5.322	-355.21	747.726	-405.449	-309.124	135.228	-87.869	0.163067	-0.04339	0.015849	0.050227	-0.005106	0.021701
-357.941	118.039	-146.75	-289.56	117.708	218.317	-208.822	95.113	254.236	-261.915	684.563	-370.587	15.895	630.205	-108.987	4.923	675.442	-5.49	-354.676	746.814	-402.407	-309.126	135.23	-87.887	0.155079	-0.047406	0.023717	0.034158	-0.01311	0.021763
-357.937	118.013	-146.777	-289.541	117.64	218.26	-208.836	95.028	254.178	-260.793	683.925	-368.576	16.614	630.137	-109.244	5.756	675.178	-5.649	-354.094	745.872	-399.088	-309.125	135.217	-87.947	0.149375	-0.024549	0.021576	0.026745	-0.01827	0.020716
-357.944	118.005	-146.795	-289.491	117.575	218.222	-208.813	95.015	254.14	-259.763	683.397	-366.82	17.331	630.016	-109.482	6.632	674.903	-5.814	-353.562	745.05	-395.729	-309.137	135.227	-87.96	0.149735	-0.004306	0.025178	0.018521	-0.024834	0.0218
-357.952	117.967	-146.823	-289.454	117.52	218.177	-208.792	94.973	254.123	-258.75	682.972	-365.12	17.985	629.852	-109.727	7.472	674.635	-5.983	-353.014	744.276	-392.387	-309.169	135.226	-87.996	0.143017	0.007144	0.020092	0.013926	-0.01819	0.023517
-357.958	117.951	-146.85	-289.435	117.513	218.153	-208.76	94.925	254.107	-257.707	682.637	-363.254	18.764	629.682	-109.951	8.327	674.402	-6.155	-352.388	743.501	-389.012	-309.138	135.261	-88.0	0.144607	0.012879	0.023295	-0.000667	-0.012969	0.018371
-357.959	117.941	-146.862	-289.355	117.44	218.144	-208.727	94.907	254.113	-256.536	682.433	-361.221	19.464	629.659	-110.218	9.182	674.198	-6.322	-351.745	742.689	-385.604	-309.175	135.223	-88.003	0.14487	-0.002488	0.02184	-0.013119	-0.002668	0.017606
-357.965	117.93	-146.879	-289.326	117.416	218.14	-208.717	94.873	254.092	-255.246	682.162	-359.057	20.204	629.548	-110.443	10.037	674.003	-6.444	-351.146	741.927	-382.21	-309.17	135.225	-88.039	0.143714	-0.005298	0.005842	-0.021826	0.00905	0.016908
-357.975	117.908	-146.887	-289.313	117.413	218.131	-208.656	94.841	254.114	-253.914	682.02	-356.771	20.919	629.415	-110.634	10.864	673.805	-6.61	-350.476	741.177	-378.728	-309.162	135.226	-88.027	0.129695	-0.009243	0.007921	-0.025341	0.004734	0.018521
-357.963	117.927	-146.898	-289.262	117.383	218.144	-208.66	94.801	254.083	-252.598	681.714	-354.701	21.549	629.416	-110.88	11.66	673.636	-6.768	-349.741	740.568	-375.232	-309.16	135.223	-88.019	0.116268	-0.005216	0.012833	-0.022888	0.008275	0.018177
-357.966	117.932	-146.899	-289.226	117.34	218.149	-208.654	94.757	254.069	-251.31	681.407	-352.535	22.352	629.347	-111.07	12.477	673.471	-6.91	-348.891	739.993	-371.691	-309.158	135.223	-88.005	0.114274	-0.000793	0.022977	-0.024652	0.011608	0.019307
-357.976	117.93	-146.884	-289.233	117.335	218.139	-208.633	94.72	254.067	-249.987	681.104	-350.507	22.95	629.305	-111.283	13.277	673.323	-7.042	-347.999	739.526	-368.075	-309.173	135.224	-87.989	0.112653	-0.009024	0.023134	-0.035481	0.006733	0.012323
-357.981	117.966	-146.873	-289.225	117.318	218.124	-208.613	94.667	254.043	-248.593	680.883	-348.413	23.49	629.191	-111.482	14.064	673.19	-7.161	-346.917	739.016	-364.473	-309.145	135.221	-87.926	0.10185	-0.030229	0.017514	-0.034084	0.002432	0.015237
-357.959	117.958	-146.843	-289.131	117.243	218.142	-208.561	94.654	254.045	-247.195	680.761	-346.385	24.146	629.034	-111.636	14.848	673.069	-7.292	-345.927	738.666	-360.895	-309.155	135.19	-87.915	0.088897	-0.031454	0.018846	-0.039804	-0.002656	0.014345
-357.933	117.966	-146.81	-289.132	117.258	218.107	-208.566	94.588	253.996	-245.775	680.746	-344.385	24.854	629.054	-111.805	15.61	672.905	-7.43	-344.916	738.259	-357.358	-309.126	135.186	-87.931	0.083701	-0.035459	0.011421	-0.039145	-0.000323	0.022135
-357.919	117.989	-146.784	-289.11	117.255	218.1	-208.546	94.548	254.0	-244.377	680.775	-342.378	25.434	628.972	-111.971	16.34	672.756	-7.539	-343.979	737.952	-353.826	-309.119	135.173	-87.863	0.068908	-0.028589	0.015274	-0.032544	-0.008751	0.027704
-357.902	118.003	-146.754	-289.108	117.229	218.102	-208.52	94.505	253.976	-242.935	680.861	-340.383	25.981	628.892	-112.163	17.056	672.626	-7.647	-342.966	737.616	-350.347	-309.105	135.153	-87.831	0.05613	-0.027266	0.012527	-0.027977	-0.007579	0.030772
-357.885	118.002	-146.737	-289.029	117.159	218.095	-208.543	94.42	253.952	-241.512	680.935	-338.449	26.59	628.776	-112.348	17.752	672.466	-7.775	-341.893	737.414	-346.914	-309.086	135.121	-87.793	0.036193	-0.016198	0.008099	-0.022368	-0.002034	0.027176
-357.859	118.016	-146.693	-288.992	117.152	218.109	-208.521	94.38	253.945	-240.098	681.038	-336.594	27.039	628.749	-112.509	18.433	672.306	-7.872	-340.779	737.322	-343.497	-309.04	135.112	-87.729	0.026215	-0.015401	0.014033	-0.015061	-0.002431	0.020746
-357.821	118.01	-146.658	-288.975	117.147	218.125	-208.503	94.331	253.932	-238.686	681.132	-334.813	27.447	628.676	-112.7	19.088	672.16	-7.985	-339.617	737.305	-340.064	-309.025	135.102	-87.719	0.021631	-0.002505	0.0112	-0.011492	-0.005842	0.021582
-357.804	118.022	-146.622	-288.909	117.091	218.132	-208.492	94.281	253.941	-237.294	681.221	-332.989	28.349	629.003	-112.52	19.721	672.034	-8.104	-338.4	737.359	-336.695	-309.009	135.08	-87.675	0.015408	-0.004398	0.002035	-0.01574	-0.010139	0.017247
-357.781	118.02	-146.603	-288.913	117.11	218.108	-208.442	94.234	253.944	-235.958	681.398	-331.42	29.066	629.174	-112.535	20.374	671.937	-8.2	-337.158	737.486	-333.353	-308.968	135.054	-87.665	0.012126	-0.005688	0.001665	-0.01328	-0.015992	0.008781
-357.759	118.025	-146.58	-288.849	117.046	218.105	-208.398	94.178	253.915	-234.641	681.686	-329.8	29.65	629.225	-112.631	20.981	671.8	-8.319	-335.928	737.617	-330.03	-308.952	135.027	-87.642	0.006525	-0.0164	0.00502	-0.010281	-0.02106	0.008264
-357.731	118.043	-146.572	-288.781	116.98	218.073	-208.398	94.073	253.859	-233.361	681.965	-328.255	30.156	629.248	-112.753	21.594	671.673	-8.441	-334.686	737.761	-326.743	-308.947	135.016	-87.651	0.004058	-0.0236	-0.00473	-0.002073	-0.02314	0.001955
-357.723	118.035	-146.567	-288.719	116.919	218.035	-208.356	94.0	253.819	-232.107	682.338	-326.633	30.578	629.224	-112.884	22.178	671.519	-8.535	-333.503	738.012	-323.486	-308.932	135.0	-87.627	-0.002508	-0.012345	-0.001649	0.008122	-0.023608	0.002806
-357.728	118.057	-146.566	-288.694	116.867	217.993	-208.337	93.906	253.775	-230.902	682.657	-325.138	30.929	629.211	-113.012	22.759	671.401	-8.65	-332.252	738.288	-320.303	-308.921	134.97	-87.623	0.003796	-0.015125	0.000949	0.01179	-0.029124	-0.000148
-357.719	118.06	-146.552	-288.637	116.759	217.965	-208.344	93.821	253.737	-229.759	682.976	-323.812	31.341	629.235	-113.14	23.26	671.266	-8.74	-330.959	738.61	-317.206	-308.915	134.955	-87.616	-0.002262	-0.013235	0.007003	0.012526	-0.029506	-0.00467
-357.723	118.056	-146.533	-288.655	116.751	217.925	-208.354	93.741	253.68	-228.716	683.207	-322.73	31.731	629.358	-113.248	23.788	671.149	-8.852	-329.663	738.978	-314.175	-308.897	134.961	-87.592	-0.00817	-0.008518	-0.003713	0.019535	-0.031951	-0.001096
-357.725	118.08	-146.521	-288.626	116.712	217.92	-208.373	93.652	253.625	-227.65	683.358	-321.793	32.025	629.421	-113.338	24.236	671.026	-8.965	-328.375	739.368	-311.239	-308.884	134.947	-87.599	-0.013456	-0.002913	0.005919	0.02731	-0.027141	-0.002558
-357.725	118.093	-146.503	-288.64	116.638	217.882	-208.417	93.555	253.567	-226.593	683.522	-320.81	32.421	629.491	-113.46	24.718	670.972	-9.057	-326.891	739.724	-308.161	-308.89	134.946	-87.559	-0.0236	0.006119	0.006838	0.022585	-0.026686	-0.001382
-357.715	118.11	-146.47	-288.638	116.61	217.872	-208.432	93.491	253.526	-225.427	683.726	-319.591	32.678	629.49	-113.551	25.168	670.895	-9.145	-325.858	740.303	-305.463	-308.872	134.939	-87.55	-0.028642	0.006059	0.010918	0.019094	-0.022526	0.004181
-357.71	118.136	-146.468	-288.671	116.586	217.841	-208.436	93.435	253.464	-224.234	683.907	-318.045	32.869	629.45	-113.618	25.598	670.864	-9.199	-324.639	740.668	-302.823	-308.858	134.939	-87.523	-0.031525	-0.003814	0.010134	0.020779	-0.029969	0.00408
-357.715	118.15	-146.445	-288.652	116.547	217.791	-208.458	93.371	253.441	-222.372	684.452	-313.979	33.098	629.45	-113.646	26.059	670.84	-9.26	-323.523	741.078	-300.262	-308.844	134.912	-87.542	-0.036334	0.002252	0.012854	0.02379	-0.024156	0.00387
-357.683	118.146	-146.428	-288.631	116.496	217.764	-208.446	93.301	253.408	-221.384	684.649	-312.636	33.42	629.405	-113.693	26.463	670.839	-9.344	-322.288	741.399	-297.877	-308.847	134.923	-87.503	-0.040043	-0.010618	0.014315	0.027428	-0.018214	0.004315
-357.68	118.145	-146.419	-288.626	116.5	217.732	-208.433	93.256	253.378	-220.474	684.825	-311.555	33.564	629.424	-113.734	26.842	670.853	-9.427	-321.305	741.863	-295.503	-308.875	134.88	-87.503	-0.043711	-0.016782	0.015645	0.032466	-0.014384	0.004761
-357.668	118.134	-146.418	-288.595	116.461	217.704	-208.403	93.22	253.357	-219.533	685.083	-310.316	33.725	629.425	-113.797	27.287	670.843	-9.51	-320.187	742.224	-293.199	-308.853	134.869	-87.465	-0.047168	-0.014833	0.015399	0.039646	-0.009163	0.002484
-357.667	118.13	-146.402	-288.545	116.413	217.68	-208.387	93.141	253.336	-218.703	685.344	-309.247	33.946	629.51	-113.786	27.714	670.821	-9.582	-319.134	742.621	-291.001	-308.843	134.846	-87.481	-0.042591	-0.013664	0.016657	0.040183	-0.012799	0.000991
-357.652	118.126	-146.402	-288.472	116.382	217.653	-208.333	93.091	253.341	-217.851	685.712	-308.009	34.148	629.508	-113.849	28.098	670.814	-9.662	-318.138	742.941	-288.974	-308.842	134.817	-87.473	-0.052323	0.000845	0.013284	0.03574	-0.007136	-0.007019
-357.644	118.121	-146.386	-288.385	116.36	217.637	-208.292	93.05	253.335	-217.048	686.072	-306.829	34.261	629.463	-113.914	28.46	670.773	-9.739	-316.992	743.167	-286.994	-308.854	134.776	-87.478	-0.057917	0.008783	0.021658	0.023839	-0.023318	-0.008544
-357.644	118.136	-146.365	-288.287	116.304	217.601	-208.261	92.978	253.328	-216.336	686.479	-305.843	34.626	629.584	-113.935	28.808	670.778	-9.81	-316.188	743.423	-285.238	-308.843	134.775	-87.445	-0.059785	0.013395	0.02294	0.017551	-0.032117	-0.004915
-357.64	118.13	-146.354	-288.198	116.307	217.57	-208.178	92.961	253.338	-215.74	686.822	-305.085	34.719	629.596	-113.945	29.202	670.785	-9.9	-315.527	743.677	-283.436	-308.852	134.766	-87.431	-0.060266	0.007541	0.024442	0.012733	-0.017531	-0.006475
-357.637	118.136	-146.318	-288.037	116.217	217.545	-208.066	92.963	253.362	-215.139	687.149	-304.27	35.391	630.117	-113.449	29.563	670.836	-9.983	-314.832	743.817	-281.955	-308.86	134.729	-87.401	-0.062102	0.001553	0.026	0.025105	-0.01661	-0.00252
-357.626	118.161	-146.301	-287.951	116.287	217.488	-207.962	92.98	253.381	-214.671	687.365	-303.601	35.509	630.098	-113.527	29.949	670.89	-10.049	-314.156	743.97	-280.699	-308.848	134.735	-87.351	-0.058651	-0.001689	0.01448	0.030083	-0.006862	0.001193
-357.613	118.171	-146.267	-287.738	116.227	217.437	-207.862	92.959	253.396	-214.248	687.486	-303.02	35.653	630.1	-113.628	30.329	670.959	-10.141	-313.487	744.139	-279.555	-308.874	134.708	-87.339	-0.058113	0.001949	0.018072	0.033044	-0.003794	-0.002256
-357.614	118.18	-146.235	-287.52	116.207	217.338	-207.695	93.003	253.425	-213.902	687.548	-302.584	35.809	630.144	-113.717	30.76	671.023	-10.23	-312.864	744.32	-278.555	-308.846	134.721	-87.257	-0.056806	0.003407	0.013669	0.033665	-0.010979	-0.003395
-357.608	118.181	-146.2	-287.251	116.204	217.286	-207.438	93.121	253.475	-213.553	687.538	-302.077	35.971	630.144	-113.815	31.221	671.091	-10.324	-312.293	744.524	-277.7	-308.846	134.71	-87.228	-0.063328	0.011658	0.014202	0.036549	-0.019717	-0.00872
-357.58	118.182	-146.145	-287.026	116.206	217.211	-207.198	93.222	253.521	-213.289	687.512	-301.743	36.144	630.17	-113.91	31.724	671.139	-10.412	-311.8	744.665	-276.978	-308.826	134.722	-87.133	-0.05887	0.014444	0.01569	0.031064	-0.022615	-0.001867
-357.57	118.209	-146.103	-286.712	116.195	217.114	-206.938	93.299	253.507	-213.062	687.486	-301.543	36.316	630.118	-114.046	32.254	671.162	-10.502	-311.372	744.775	-276.366	-308.834	134.694	-87.105	-0.058436	0.024989	0.008441	0.027219	-0.032041	-0.00298
-357.568	118.187	-146.039	-286.353	116.164	216.963	-206.595	93.415	253.457	-212.884	687.506	-301.441	36.628	630.164	-114.111	32.827	671.238	-10.611	-311.013	744.859	-275.866	-308.837	134.683	-87.068	-0.056162	0.014249	0.010237	0.021865	-0.036262	-0.003517
-357.554	118.189	-146.027	-285.547	115.647	216.753	-206.249	93.517	253.356	-212.697	687.538	-301.373	36.924	630.189	-114.187	33.46	671.327	-10.699	-310.725	744.888	-275.46	-308.824	134.682	-87.043	-0.05213	0.012078	0.007641	0.018821	-0.033806	-0.010698
-357.516	118.196	-145.996	-285.109	115.722	216.496	-205.792	93.627	253.143	-212.543	687.548	-301.292	37.197	630.149	-114.32	34.096	671.408	-10.812	-310.492	744.922	-275.211	-308.828	134.656	-86.991	-0.049552	0.007039	0.010166	0.018274	-0.030371	-0.004907
-357.52	118.188	-145.96	-284.528	115.743	216.209	-205.27	93.77	252.909	-212.431	687.586	-301.309	37.404	630.055	-114.485	34.816	671.51	-10.884	-310.325	744.937	-275.091	-308.838	134.655	-86.954	-0.049639	0.006447	0.009703	0.016278	-0.02099	-0.002177
-357.506	118.184	-145.935	-283.898	115.799	215.816	-204.687	93.917	252.587	-212.38	687.606	-301.355	37.718	630.109	-114.565	35.578	671.627	-10.968	-310.204	744.93	-275.073	-308.846	134.618	-86.929	-0.045955	0.007366	0.013597	0.01443	-0.019542	-0.007473
-357.483	118.169	-145.874	-282.062	114.846	215.412	-204.014	94.099	252.103	-212.311	687.622	-301.556	38.125	630.087	-114.644	36.334	671.765	-11.077	-310.129	744.904	-275.129	-308.861	134.617	-86.896	-0.050158	0.00773	0.013777	0.017892	-0.015085	0.002649
-357.482	118.182	-145.851	-281.171	115.027	214.744	-203.18	94.396	251.622	-212.375	687.652	-301.793	38.506	630.095	-114.768	37.185	671.91	-11.18	-310.124	744.866	-275.286	-308.898	134.604	-86.865	-0.050521	0.013055	0.009593	0.009965	-0.002735	0.001652
-357.474	118.191	-145.807	-280.228	115.067	213.937	-202.186	94.715	250.964	-212.464	687.625	-302.097	38.842	630.051	-114.931	38.023	672.054	-11.256	-310.188	744.827	-275.55	-308.918	134.598	-86.856	-0.045152	0.010259	0.007737	0.01864	0.000118	0.004111
-357.464	118.189	-145.77	-279.057	115.21	213.029	-201.086	95.087	250.161	-212.645	687.558	-302.568	39.258	630.037	-115.074	38.93	672.25	-11.329	-310.292	744.805	-275.881	-308.959	134.584	-86.818	-0.041871	0.008906	0.00587	0.024422	-0.005066	0.003686
-357.451	118.187	-145.731	-277.825	115.363	211.964	-199.933	95.415	249.223	-212.876	687.452	-303.117	39.764	630.045	-115.123	39.857	672.468	-11.462	-310.408	744.764	-276.246	-308.987	134.58	-86.817	-0.04215	0.007566	0.001805	0.021454	-0.015331	0.002343
-357.425	118.195	-145.708	-276.552	115.492	210.787	-198.651	95.719	248.178	-213.019	687.33	-303.455	40.251	630.05	-115.184	40.893	672.711	-11.572	-310.545	744.749	-276.696	-309.009	134.564	-86.775	-0.041493	0.01051	-0.003725	0.019329	-0.01608	-0.002738
-357.426	118.192	-145.685	-275.147	115.634	209.531	-197.337	95.973	247.028	-213.228	687.205	-303.883	40.727	630.024	-115.351	41.966	672.99	-11.641	-310.739	744.722	-277.199	-309.054	134.566	-86.748	-0.03584	0.006065	-0.006211	0.011372	-0.021821	-0.006617
-357.418	118.18	-145.667	-273.705	115.728	208.167	-195.93	96.266	245.814	-213.523	687.055	-304.382	41.33	630.076	-115.344	43.099	673.297	-11.784	-310.928	744.682	-277.772	-309.072	134.564	-86.728	-0.023506	0.005209	-0.011617	0.005592	-0.020934	-0.009831
-357.388	118.183	-145.63	-272.147	115.809	206.725	-194.406	96.506	244.529	-213.805	686.887	-304.891	41.873	630.087	-115.426	44.294	673.601	-11.923	-311.181	744.661	-278.355	-309.063	134.582	-86.7	-0.024865	0.014165	-0.01072	0.000344	-0.01993	-0.005858
-357.379	118.169	-145.617	-270.531	115.85	205.208	-192.865	96.768	243.154	-214.128	686.745	-305.37	42.54	630.11	-115.492	45.576	673.925	-12.037	-311.471	744.637	-279.008	-309.074	134.57	-86.685	-0.019039	0.012698	-0.01326	-0.005684	-0.00796	0.000182
-357.4	118.185	-145.617	-268.878	115.887	203.592	-191.296	96.991	241.727	-214.466	686.612	-305.901	43.175	630.065	-115.51	46.908	674.285	-12.205	-311.782	744.579	-279.642	-309.108	134.575	-86.677	-0.019573	0.01939	-0.011577	-0.008914	0.001097	0.010683
-357.408	118.201	-145.626	-267.125	115.902	201.909	-189.623	97.28	240.235	-214.785	686.489	-306.416	43.949	630.113	-115.52	48.244	674.633	-12.395	-312.107	744.52	-280.294	-309.105	134.609	-86.687	-0.013489	0.024366	-0.010497	-0.010541	0.006433	0.01263
-357.416	118.198	-145.633	-265.328	115.969	200.162	-187.918	97.561	238.649	-215.131	686.367	-306.897	44.785	630.103	-115.466	49.702	675.067	-12.585	-312.425	744.446	-280.984	-309.151	134.623	-86.677	-0.019849	0.022864	-0.010864	-0.014429	0.007369	0.016777
-357.425	118.236	-145.647	-263.497	116.159	198.335	-186.121	97.945	236.993	-215.563	686.235	-307.6	45.586	630.115	-115.466	51.265	675.531	-12.799	-312.817	744.435	-281.726	-309.188	134.638	-86.693	-0.01524	0.021728	-0.011084	-0.021176	0.001014	0.018713
-357.466	118.271	-145.685	-261.755	116.455	196.401	-184.297	98.413	235.199	-215.829	686.118	-307.996	46.561	630.194	-115.384	52.961	676.042	-13.004	-313.189	744.412	-282.448	-309.238	134.696	-86.699	-0.017268	0.01248	-0.017035	-0.026423	-0.001689	0.018475
-357.475	118.308	-145.713	-260.271	117.341	194.597	-182.423	98.877	233.26	-216.205	685.996	-308.548	47.455	630.247	-115.378	54.758	676.567	-13.266	-313.606	744.377	-283.151	-309.282	134.729	-86.747	-0.015672	0.006092	-0.009871	-0.027983	-0.009428	0.016105
-357.494	118.344	-145.765	-257.874	117.178	192.486	-180.493	99.422	231.25	-216.689	685.839	-309.299	48.502	630.322	-115.361	56.653	677.126	-13.592	-313.999	744.341	-283.875	-309.339	134.74	-86.772	-0.010226	0.005324	-0.00925	-0.035239	-0.006929	0.011259
-357.534	118.373	-145.808	-256.002	117.707	190.37	-178.525	100.0	229.117	-217.149	685.728	-309.948	49.61	630.395	-115.374	58.627	677.713	-13.938	-314.411	744.337	-284.626	-309.362	134.806	-86.781	-0.008469	0.003946	7.2e-05	-0.030808	-0.01094	0.008807
-357.552	118.406	-145.835	-254.204	118.182	188.175	-176.509	100.527	226.883	-217.552	685.642	-310.507	50.86	630.454	-115.392	60.747	678.349	-14.355	-314.849	744.312	-285.354	-309.405	134.84	-86.797	-0.004432	0.005317	-0.001516	-0.032446	-0.006853	0.016269
-357.592	118.444	-145.881	-252.272	118.672	185.917	-174.424	101.119	224.56	-217.978	685.541	-311.089	52.269	630.588	-115.389	63.001	679.01	-14.8	-315.286	744.281	-286.072	-309.466	134.869	-86.842	0.002395	0.00299	-0.005234	-0.022224	-0.003531	0.01604
-357.591	118.47	-145.915	-250.262	118.972	183.52	-172.36	101.608	222.139	-218.501	685.451	-311.712	53.525	630.674	-115.52	65.381	679.638	-15.297	-315.76	744.24	-286.799	-309.491	134.906	-86.871	0.006072	-0.004216	-0.008994	-0.029929	-0.003167	0.006642
-357.633	118.51	-145.995	-248.181	119.33	181.025	-170.206	102.084	219.633	-218.895	685.35	-312.166	54.936	630.777	-115.596	67.93	680.222	-15.796	-316.226	744.168	-287.485	-309.52	134.92	-86.928	0.010364	-0.009856	-0.015732	-0.026943	-0.011492	0.006251
-357.643	118.513	-146.015	-246.08	119.523	178.411	-167.964	102.493	217.046	-219.373	685.239	-312.853	56.441	630.971	-115.818	70.54	680.735	-16.368	-316.682	744.086	-288.122	-309.525	134.938	-86.935	0.010203	-0.007899	-0.014659	-0.033516	-0.010277	0.011293
-357.65	118.499	-146.05	-243.892	119.674	175.723	-165.725	102.806	214.339	-219.863	685.162	-313.414	57.985	631.253	-115.958	73.248	681.162	-16.961	-317.143	743.975	-288.767	-309.527	134.936	-86.976	0.015078	-0.00449	-0.018694	-0.036226	-0.018388	0.009716
-357.657	118.48	-146.089	-241.781	119.779	172.925	-163.455	103.03	211.555	-220.383	685.018	-313.946	59.402	631.559	-116.196	76.124	681.635	-17.57	-317.603	743.899	-289.367	-309.543	134.928	-86.997	0.010243	-0.003741	-0.020635	-0.046097	-0.013974	0.006224
-357.655	118.442	-146.113	-239.639	119.781	170.103	-161.072	103.21	208.646	-220.922	684.892	-314.55	61.012	631.904	-116.406	79.114	682.085	-18.203	-318.072	743.776	-289.955	-309.508	134.895	-87.025	0.012577	-0.000318	-0.021052	-0.048167	-0.010068	0.009273
-357.658	118.397	-146.164	-237.228	119.65	167.138	-158.639	103.345	205.716	-221.337	684.701	-315.002	62.608	632.222	-116.58	82.283	682.536	-18.856	-318.548	743.667	-290.49	-309.505	134.862	-87.067	0.01122	0.008829	-0.014223	-0.047298	-0.013985	0.007907
-357.655	118.344	-146.199	-234.736	119.463	164.034	-156.214	103.323	202.723	-221.756	684.541	-315.375	64.32	632.475	-116.765	85.554	683.013	-19.546	-318.992	743.553	-290.983	-309.515	134.818	-87.127	0.019794	0.002136	-0.01431	-0.044673	-0.011087	0.01659
-357.671	118.301	-146.241	-232.036	119.032	160.935	-153.81	103.24	199.645	-222.223	684.328	-315.771	66.014	632.926	-116.928	88.938	683.503	-20.301	-319.457	743.399	-291.405	-309.515	134.799	-87.173	0.022362	-0.007484	-0.013657	-0.044193	-0.002149	0.019904
-357.693	118.271	-146.278	-229.731	118.8	157.79	-151.402	103.143	196.548	-222.648	684.16	-316.125	68.362	632.609	-117.508	92.43	684.015	-21.055	-319.918	743.223	-291.801	-309.512	134.786	-87.256	0.026361	-0.00915	-0.018905	-0.037328	0.004058	0.025445
-357.718	118.258	-146.319	-227.574	118.621	154.748	-149.009	103.016	193.49	-223.026	683.952	-316.394	70.303	632.842	-117.721	96.008	684.531	-21.845	-320.389	742.979	-292.173	-309.52	134.781	-87.286	0.021262	-0.016273	-0.023523	-0.043269	4.1e-05	-0.016543
-357.729	118.247	-146.339	-225.374	118.331	151.777	-146.635	102.951	190.475	-223.478	683.734	-316.704	72.178	633.172	-117.673	99.605	685.001	-22.676	-320.868	742.763	-292.462	-309.539	134.751	-87.331	0.015937	-0.019393	-0.016648	-0.061704	-0.015585	0.015744
-357.754	118.248	-146.345	-223.246	118.096	148.776	-144.343	102.807	187.477	-223.931	683.547	-316.943	74.395	633.153	-117.884	103.283	685.459	-23.516	-321.316	742.547	-292.714	-309.56	134.765	-87.332	0.014188	-0.021797	-0.017788	-0.078854	-0.029653	0.019591
-357.761	118.226	-146.349	-221.131	117.934	145.789	-142.076	102.682	184.593	-224.283	683.279	-316.998	76.74	633.171	-118.272	106.974	685.863	-24.406	-321.744	742.28	-292.926	-309.564	134.777	-87.37	0.010951	-0.017529	-0.009569	-0.099933	-0.013751	0.033282
-357.798	118.229	-146.356	-219.019	117.746	142.979	-139.871	102.572	181.754	-224.693	682.976	-317.215	79.171	633.276	-118.488	110.72	686.203	-25.377	-322.16	742.009	-293.08	-309.579	134.755	-87.352	0.012733	-0.015591	-0.011472	-0.101705	0.011476	0.001629
-357.805	118.227	-146.377	-216.941	117.61	140.244	-137.727	102.543	179.012	-225.078	682.663	-317.298	81.342	633.511	-118.816	114.483	686.528	-26.509	-322.576	741.736	-293.193	-309.589	134.769	-87.378	0.012878	-0.014345	-0.017764	-0.093071	0.026261	0.032711
-357.826	118.236	-146.389	-215.002	117.578	137.606	-135.661	102.587	176.279	-225.445	682.384	-317.304	83.424	634.095	-119.206	118.3	686.868	-27.581	-322.932	741.4	-293.256	-309.627	134.747	-87.381	0.020681	-0.021138	-0.019574	-0.0981	0.025453	-0.001774
-357.844	118.247	-146.388	-213.064	117.61	134.992	-133.635	102.761	173.728	-225.762	682.13	-317.26	84.89	635.678	-120.026	122.152	687.202	-28.687	-323.311	741.08	-293.282	-309.624	134.756	-87.395	0.013845	-0.020211	-0.010722	-0.115515	0.007515	0.000845
-357.857	118.23	-146.405	-211.126	117.708	132.515	-131.673	102.976	171.27	-226.092	681.835	-317.246	87.072	636.363	-120.309	126.041	687.524	-29.84	-323.664	740.752	-293.257	-309.648	134.752	-87.399	0.017361	-0.012263	-0.009848	-0.122899	-0.000824	0.009319
-357.873	118.216	-146.407	-209.256	117.957	130.089	-129.69	103.289	168.87	-226.412	681.538	-317.148	89.859	636.505	-120.916	130.092	687.815	-31.155	-324.009	740.375	-293.183	-309.482	134.768	-87.377	0.023456	-0.014375	-0.000892	-0.111604	0.027959	0.02254
-357.896	118.23	-146.409	-207.38	118.23	127.753	-127.769	103.691	166.533	-226.677	681.204	-317.12	92.675	636.513	-121.611	133.958	688.086	-32.39	-324.314	739.985	-293.096	-309.441	134.743	-87.417	0.026704	-0.010432	-0.000832	-0.075763	0.069753	0.038687
-357.888	118.234	-146.386	-205.555	118.571	125.418	-125.858	104.149	164.224	-226.942	680.892	-316.956	95.661	636.442	-122.53	137.894	688.324	-33.745	-324.622	739.594	-292.967	-309.446	134.751	-87.423	0.0364	-0.000395	0.007109	-0.064913	0.094315	0.038751
-357.885	118.226	-146.371	-203.708	119.002	123.117	-123.925	104.7	161.966	-227.18	680.549	-316.765	98.795	636.601	-123.334	141.818	688.536	-35.083	-324.916	739.192	-292.814	-309.484	134.783	-87.384	0.045027	0.001252	0.003353	-0.076176	0.082744	0.038644
-357.892	118.236	-146.353	-201.819	119.497	120.805	-122.008	105.277	159.677	-227.501	680.194	-316.758	101.824	636.776	-124.147	145.736	688.719	-36.501	-325.193	738.755	-292.604	-309.653	134.77	-87.327	0.05483	0.002699	-0.001308	-0.106041	0.042329	0.045677
-357.891	118.267	-146.341	-199.932	120.003	118.53	-120.07	105.926	157.432	-227.752	679.791	-316.616	104.848	636.788	-125.183	149.565	688.861	-37.992	-325.517	738.431	-292.356	-309.649	134.771	-87.3	0.070128	0.002486	0.004086	-0.108798	0.017286	0.03053
-357.882	118.281	-146.307	-198.005	120.551	116.198	-118.097	106.642	155.159	-227.973	679.412	-316.399	107.942	636.797	-126.307	153.408	688.968	-39.479	-325.784	737.978	-292.054	-309.648	134.797	-87.265	0.097062	0.009613	-7.2e-05	-0.097416	0.013785	0.030644
-357.884	118.308	-146.297	-196.033	121.195	113.847	-116.153	107.381	152.838	-228.142	679.033	-315.998	111.004	636.775	-127.277	157.143	689.031	-41.096	-326.002	737.519	-291.705	-309.682	134.789	-87.239	0.131725	0.013756	-0.005634	-0.096506	0.017521	0.042899
-357.901	118.317	-146.281	-194.087	121.822	111.457	-114.148	108.144	150.509	-228.337	678.63	-315.853	113.869	636.667	-128.397	160.827	689.11	-42.735	-326.213	737.1	-291.295	-309.681	134.785	-87.214	0.150941	0.02445	-0.017166	-0.100542	0.01615	0.03436
-357.9	118.326	-146.273	-192.076	122.523	109.101	-112.109	108.952	148.142	-228.468	678.206	-315.507	116.949	636.656	-129.547	164.469	689.189	-44.452	-326.422	736.668	-290.863	-309.714	134.795	-87.194	0.161836	0.032901	-0.0185	-0.098406	0.013562	0.029703
-357.908	118.335	-146.261	-190.095	123.221	106.697	-110.008	109.78	145.761	-228.575	677.822	-315.19	120.299	636.653	-131.213	168.065	689.247	-46.251	-326.584	736.208	-290.423	-309.731	134.806	-87.171	0.166729	0.034456	-0.017494	-0.082709	0.011979	0.049558
-357.927	118.364	-146.266	-188.033	124.002	104.275	-107.916	110.641	143.291	-228.778	677.527	-314.945	123.808	636.678	-133.204	171.606	689.296	-48.112	-326.729	735.789	-289.998	-309.741	134.838	-87.175	0.172943	0.022421	-0.012542	-0.061908	0.033173	0.006144
-357.976	118.376	-146.264	-185.928	124.734	101.817	-105.724	111.51	140.868	-228.937	677.137	-314.642	127.288	636.771	-135.273	175.095	689.318	-50.095	-326.859	735.378	-289.525	-309.753	134.853	-87.16	0.181553	0.012314	-0.009659	-0.035766	0.066775	0.025231
-357.964	118.401	-146.254	-183.774	125.529	99.324	-103.528	112.387	138.381	-229.089	676.784	-314.343	130.374	636.774	-137.313	178.513	689.305	-52.155	-326.976	734.978	-289.112	-309.786	134.863	-87.163	0.188492	-0.006659	-0.00155	-0.036111	0.072971	0.025581
-357.993	118.424	-146.258	-181.564	126.304	96.795	-101.263	113.294	135.837	-229.12	676.451	-313.974	133.335	636.819	-139.204	181.897	689.309	-54.269	-327.091	734.549	-288.637	-309.838	134.875	-87.133	0.197878	-0.011321	-0.003714	-0.041941	0.063475	0.018379
-358.021	118.453	-146.285	-179.365	127.14	94.183	-98.889	114.22	133.261	-229.165	676.134	-313.597	136.262	636.871	-141.325	185.201	689.28	-56.478	-327.218	734.199	-288.184	-309.845	134.897	-87.121	0.210725	-0.014518	-0.001532	-0.049336	0.051691	0.016481
-358.038	118.475	-146.28	-177.181	128.03	91.522	-96.452	115.16	130.524	-229.194	675.792	-313.262	139.147	636.931	-143.552	188.443	689.249	-58.76	-327.274	733.779	-287.809	-309.845	134.928	-87.126	0.218314	-0.0183	0.004953	-0.046896	0.043638	0.025055
-358.038	118.477	-146.258	-174.807	128.926	88.758	-93.951	116.125	127.725	-229.139	675.497	-312.778	141.919	636.955	-145.943	191.554	689.218	-61.113	-327.343	733.362	-287.375	-309.809	134.869	-87.132	0.218548	-0.023345	0.010628	-0.046926	0.045033	0.014636
-358.035	118.494	-146.273	-172.248	129.779	85.678	-91.406	117.083	124.76	-229.152	675.207	-312.512	144.782	637.032	-148.461	194.655	689.216	-63.38	-327.39	732.956	-286.941	-309.282	134.542	-87.265	0.216719	-0.021088	0.005267	-0.045553	0.047883	0.001431
-358.027	118.485	-146.275	-169.425	130.546	82.527	-88.746	118.069	121.714	-229.121	674.952	-312.096	147.548	637.097	-151.061	197.758	689.214	-65.885	-327.393	732.558	-286.463	-309.697	134.843	-86.991	0.223459	-0.020222	0.005737	-0.041601	0.055088	-0.005755
-358.011	118.478	-146.272	-166.826	131.377	79.422	-86.014	119.036	118.574	-229.052	674.71	-311.742	150.252	637.265	-153.544	200.661	689.263	-68.303	-327.431	732.189	-285.999	-309.682	134.829	-86.977	0.223525	-0.013288	0.002372	-0.029536	0.068713	0.001439
-358.024	118.456	-146.296	-164.272	132.248	76.308	-83.312	119.929	115.387	-228.999	674.45	-311.341	152.874	637.417	-156.174	203.39	689.254	-70.752	-327.43	731.816	-285.512	-309.676	134.82	-86.976	0.215175	-0.012742	-0.000311	-0.032972	0.072575	0.010207
-357.996	118.426	-146.302	-161.675	133.063	73.224	-80.593	120.789	112.104	-228.963	674.197	-311.021	155.465	637.554	-158.846	206.116	689.275	-73.273	-327.447	731.492	-285.064	-309.644	134.805	-86.984	0.204945	-0.015923	-0.005894	-0.026199	0.085267	-0.010732
-357.978	118.385	-146.319	-159.05	133.858	70.1	-77.834	121.725	108.83	-228.934	673.962	-310.695	157.953	637.725	-161.463	208.738	689.306	-75.804	-327.435	731.099	-284.566	-309.61	134.772	-87.002	0.212112	-0.007664	-0.007146	-0.014042	0.083064	-0.017259
-357.944	118.316	-146.319	-156.515	134.705	66.955	-75.094	122.607	105.581	-228.908	673.74	-310.355	160.334	637.341	-164.843	211.154	689.259	-78.43	-327.405	730.722	-284.106	-309.585	134.724	-87.016	0.214864	0.015479	-0.013827	-0.007788	0.079868	-0.022331
-357.924	118.281	-146.345	-153.876	135.468	63.908	-72.355	123.489	102.35	-228.841	673.509	-309.991	162.386	638.238	-166.57	213.648	689.302	-80.959	-327.414	730.411	-283.641	-309.588	134.69	-87.019	0.197288	0.034359	-0.012855	0.000228	0.067506	-0.040172
-357.889	118.234	-146.371	-151.301	136.261	60.794	-69.634	124.353	99.119	-228.795	673.274	-309.64	164.599	638.47	-169.354	215.939	689.27	-83.601	-327.689	730.3	-283.41	-309.559	134.656	-87.059	0.182985	0.062214	-0.014323	-0.008161	0.062833	-0.048061
-357.886	118.177	-146.398	-148.648	137.008	57.793	-66.853	125.254	96.0	-228.771	673.065	-309.306	166.42	638.697	-171.953	218.141	689.194	-86.337	-327.635	729.949	-282.93	-309.528	134.636	-87.079	0.172082	0.069011	-0.012037	-0.000306	0.067963	-0.072132
-357.851	118.15	-146.419	-145.97	137.773	54.855	-64.091	126.152	92.966	-228.699	672.841	-309.016	168.275	639.102	-174.361	220.267	689.123	-89.067	-327.622	729.685	-282.472	-309.493	134.601	-87.111	0.170683	0.069878	-0.013393	-0.005824	0.067913	-0.072451
-357.866	118.099	-146.454	-143.329	138.56	52.009	-61.264	127.133	90.074	-228.646	672.713	-308.809	170.011	639.323	-177.036	222.368	689.071	-91.917	-327.6	729.424	-282.004	-309.636	134.576	-87.171	0.152625	0.062969	-0.012813	-0.009874	0.064648	-0.0921
-357.864	118.048	-146.497	-140.625	139.409	49.23	-58.478	128.135	87.287	-228.593	672.562	-308.583	171.69	639.626	-179.787	224.44	689.028	-94.888	-327.551	729.13	-281.539	-309.599	134.544	-87.272	0.1319	0.062074	-0.014711	-0.012279	0.066361	-0.089538
-357.889	118.035	-146.514	-137.886	140.244	46.52	-55.752	129.14	84.521	-228.551	672.46	-308.301	173.291	639.884	-182.472	226.514	689.063	-97.673	-327.53	728.855	-281.108	-309.625	134.562	-87.308	0.124409	0.088115	-0.021375	-0.011115	0.072149	-0.084847
-357.902	118.014	-146.534	-134.917	140.904	43.91	-52.955	130.193	81.915	-228.506	672.362	-308.133	174.818	640.174	-185.132	228.52	689.088	-100.507	-327.471	728.609	-280.664	-309.624	134.559	-87.327	0.123743	0.115026	-0.020953	-0.013418	0.080402	-0.086755
-357.905	118.003	-146.56	-132.122	141.522	41.76	-50.474	131.13	79.226	-228.445	672.224	-307.9	176.247	640.463	-187.774	230.508	689.136	-103.283	-327.447	728.384	-280.244	-309.632	134.582	-87.356	0.114219	0.114632	-0.027124	-0.016777	0.088028	-0.097339
-357.906	117.98	-146.541	-129.611	142.343	39.337	-47.923	132.108	76.739	-228.428	672.153	-307.876	177.483	640.647	-190.417	232.422	689.176	-105.782	-327.402	728.148	-279.814	-309.662	134.573	-87.372	0.091951	0.117562	-0.022012	-0.016648	0.072584	-0.097521
-357.885	117.945	-146.537	-127.241	143.184	37.024	-45.462	133.195	74.33	-228.393	672.066	-307.772	178.649	640.834	-192.972	234.254	689.198	-108.462	-327.357	727.939	-279.411	-309.636	134.565	-87.368	0.067328	0.119336	-0.022	-0.011291	0.05668	-0.101243
-357.861	117.929	-146.54	-124.999	144.003	34.837	-43.18	134.237	71.937	-228.404	671.986	-307.741	179.863	641.043	-195.446	236.053	689.208	-111.162	-327.292	727.774	-279.0	-309.644	134.573	-87.352	0.052564	0.112738	-0.026757	-0.001082	0.041266	-0.102708
-357.838	117.898	-146.53	-122.944	144.877	32.689	-41.006	135.294	69.553	-228.42	671.955	-307.715	181.222	641.325	-197.966	237.771	689.206	-113.787	-327.223	727.586	-278.557	-309.649	134.591	-87.352	0.04461	0.104601	-0.032874	0.004743	0.038712	-0.108871
-357.817	117.868	-146.522	-121.067	145.756	30.535	-38.992	136.337	67.129	-228.42	671.92	-307.707	182.582	641.632	-200.443	239.437	689.207	-116.406	-327.141	727.417	-278.134	-309.651	134.602	-87.331	0.024967	0.090503	-0.036265	0.005791	0.019306	-0.10449
-357.826	117.86	-146.517	-119.437	146.641	28.367	-37.184	137.427	64.615	-228.465	671.877	-307.768	183.981	641.92	-203.06	240.826	688.931	-119.42	-327.113	727.361	-277.609	-309.662	134.596	-87.306	-0.001145	0.07995	-0.041457	0.008227	0.024429	-0.101226
-357.828	117.858	-146.528	-118.029	147.534	26.097	-35.809	138.376	61.903	-228.462	671.871	-307.783	185.71	642.266	-205.673	242.366	688.999	-121.935	-327.058	727.253	-277.203	-309.665	134.626	-87.331	-0.021571	0.0606	-0.049805	0.012182	0.038036	-0.105481
-357.856	117.859	-146.532	-116.818	148.392	23.665	-34.407	139.374	59.285	-228.54	671.868	-307.946	186.877	642.542	-208.082	243.799	689.053	-124.401	-326.946	727.15	-276.807	-309.702	134.654	-87.292	-0.043705	0.041886	-0.041337	0.017503	0.037647	-0.113555
-357.887	117.866	-146.519	-115.814	149.238	21.563	-33.168	140.392	56.7	-228.598	671.875	-308.085	187.926	642.827	-210.394	245.169	689.158	-126.825	-326.812	727.08	-276.401	-309.755	134.699	-87.3	-0.053201	0.034295	-0.045891	0.024625	0.032098	-0.116083
-357.929	117.902	-146.517	-115.02	150.102	19.52	-32.094	141.323	54.114	-228.687	671.899	-308.32	188.873	643.113	-212.526	246.482	689.271	-129.198	-326.708	727.028	-276.049	-309.79	134.73	-87.291	-0.05251	0.03205	-0.049644	0.019059	0.028599	-0.116902
-357.972	117.929	-146.515	-114.374	150.908	17.516	-31.193	142.193	51.522	-228.846	671.874	-308.714	189.624	643.331	-214.519	247.722	689.355	-131.537	-326.58	726.976	-275.725	-309.835	134.802	-87.278	-0.053804	0.04338	-0.042587	0.011061	0.029304	-0.119317
-358.013	117.986	-146.489	-113.88	151.706	15.536	-30.472	142.949	48.983	-228.959	671.819	-308.992	189.906	643.119	-216.442	248.911	689.455	-133.845	-326.462	726.923	-275.423	-309.887	134.83	-87.263	-0.055857	0.037997	-0.040255	0.011531	0.030591	-0.123712
-358.068	118.019	-146.467	-113.491	152.43	13.631	-29.8	143.676	46.544	-229.198	671.769	-309.472	190.733	643.191	-218.492	250.001	689.53	-136.072	-326.345	726.902	-275.136	-309.941	134.873	-87.241	-0.055904	0.047537	-0.04432	0.017031	0.039903	-0.114116
-358.127	118.066	-146.439	-113.157	153.073	11.783	-29.246	144.258	44.154	-229.407	671.681	-309.85	192.825	644.208	-222.0	251.028	689.614	-138.3	-326.245	726.887	-274.925	-310.003	134.952	-87.214	-0.06311	0.057326	-0.053233	0.015548	0.031085	-0.107354
