LLegOut_X	LLegOut_Y	LLegOut_Z	RLegIn_X	RLegIn_Y	RLegIn_Z	RLegOut_X	RLegOut_Y	RLegOut_Z	LArmIn_X	LArmIn_Y	LArmIn_Z	RArmIn_X	RArmIn_Y	RArmIn_Z	RArmOut_X	RArmOut_Y	RArmOut_Z	LArmOut_X	LArmOut_Y	LArmOut_Z	LLegIn_X	LLegIn_Y	LLegIn_Z	LArm_acc_X	LArm_acc_Y	LArm_acc_Z	RArm_acc_X	RArm_acc_Y	RArm_acc_Z
-354.146	114.27	-148.346	-264.827	112.065	234.385	-179.829	83.386	257.047	-234.717	635.478	-331.8	86.509	600.238	-105.041	108.12	646.106	-5.141	-339.537	680.685	-342.645	-305.937	132.187	-87.655	-0.001953	0.007659	0.008778	-0.000948	0.006516	0.007949
-354.145	114.285	-148.343	-264.841	112.074	234.379	-179.841	83.366	257.025	-234.735	635.497	-331.804	86.501	600.309	-105.038	108.116	646.115	-5.101	-339.553	680.709	-342.623	-305.968	132.188	-87.627	0.000926	0.003904	0.005952	-0.004596	0.005778	0.007884
-354.15	114.283	-148.343	-264.828	112.078	234.388	-179.832	83.366	257.04	-234.732	635.486	-331.784	86.559	600.283	-104.989	108.124	646.134	-5.072	-339.552	680.707	-342.587	-305.946	132.199	-87.568	0.001625	-0.000559	0.00167	-0.001609	0.002817	0.005111
-354.144	114.299	-148.336	-264.827	112.078	234.376	-179.841	83.374	257.019	-234.747	635.504	-331.761	86.523	600.293	-104.99	108.12	646.135	-5.048	-339.728	680.847	-342.363	-305.981	132.187	-87.64	-0.00417	0.001675	0.001612	-0.003101	-9.6e-05	0.007255
-354.147	114.301	-148.33	-264.819	112.064	234.4	-179.856	83.355	257.016	-234.765	635.495	-331.758	86.557	600.318	-104.99	108.137	646.156	-5.038	-339.725	680.851	-342.337	-305.966	132.201	-87.631	0.000141	-0.001367	0.003885	-0.003674	-0.001582	0.00286
-354.146	114.297	-148.328	-264.829	112.064	234.392	-179.842	83.362	257.023	-234.777	635.481	-331.754	86.575	600.33	-104.961	108.137	646.159	-5.036	-339.724	680.838	-342.329	-305.997	132.187	-87.648	-0.000568	-0.000646	0.00315	-0.005658	-0.004503	-0.002348
-354.13	114.302	-148.332	-264.84	112.054	234.397	-179.839	83.365	257.024	-234.787	635.476	-331.744	86.615	600.296	-104.916	108.136	646.174	-5.024	-339.718	680.822	-342.334	-305.968	132.179	-87.59	0.001774	0.008028	0.002349	-0.002538	-0.000136	-0.00819
-354.129	114.295	-148.329	-264.837	112.082	234.374	-179.816	83.356	257.021	-234.823	635.483	-331.766	86.61	600.347	-104.951	108.132	646.186	-5.021	-339.685	680.799	-342.322	-305.938	132.172	-87.614	-0.00126	6.2e-05	-0.000498	0.003902	-0.002273	-0.002993
-354.144	114.298	-148.327	-264.812	112.06	234.383	-179.824	83.378	257.008	-234.831	635.467	-331.724	86.599	600.339	-104.95	108.153	646.194	-5.006	-339.696	680.776	-342.344	-305.973	132.169	-87.613	0.000954	0.003709	0.003102	0.005526	0.003508	-0.008785
-354.136	114.287	-148.334	-264.808	112.06	234.398	-179.815	83.365	257.024	-234.849	635.458	-331.737	86.597	600.351	-104.956	108.147	646.198	-5.022	-339.687	680.768	-342.346	-305.932	132.194	-87.59	0.001841	0.009374	-0.004926	0.005527	-0.003761	-0.008767
-354.134	114.278	-148.356	-264.783	112.066	234.385	-179.822	83.362	257.01	-234.836	635.473	-331.735	86.601	600.359	-104.955	108.137	646.206	-5.022	-339.69	680.76	-342.373	-305.931	132.175	-87.616	0.006002	0.002026	0.003915	0.000213	-0.001544	-0.000906
-354.135	114.292	-148.33	-264.803	112.071	234.386	-179.819	83.373	257.023	-234.83	635.456	-331.791	86.601	600.341	-104.939	108.129	646.212	-5.02	-339.672	680.749	-342.397	-305.939	132.171	-87.612	0.002366	0.004188	0.003867	0.000127	0.001393	0.002687
-354.129	114.266	-148.35	-264.797	112.067	234.383	-179.809	83.362	257.018	-234.84	635.458	-331.782	86.559	600.375	-104.974	108.115	646.212	-5.041	-339.658	680.736	-342.411	-305.955	132.17	-87.621	0.001627	0.003392	0.000236	0.002351	0.00432	0.002667
-354.136	114.281	-148.361	-264.795	112.073	234.379	-179.8	83.376	257.037	-234.828	635.454	-331.817	86.58	600.369	-104.973	108.103	646.223	-5.025	-339.645	680.725	-342.447	-305.939	132.162	-87.647	-0.001424	-0.002363	0.002444	-0.000529	0.002893	0.002533
-354.137	114.272	-148.366	-264.798	112.087	234.365	-179.824	83.356	257.016	-234.829	635.448	-331.88	86.557	600.374	-104.948	108.103	646.236	-5.02	-339.628	680.7	-342.473	-305.916	132.181	-87.655	-0.001337	0.001243	-0.000499	-0.001226	0.002931	0.003145
-354.127	114.266	-148.352	-264.793	112.066	234.388	-179.811	83.362	257.018	-234.832	635.429	-331.856	86.561	600.4	-104.941	108.078	646.241	-5.017	-339.643	680.695	-342.481	-305.942	132.177	-87.628	0.000865	0.001205	-0.000471	-0.003229	0.005838	-0.001363
-354.138	114.273	-148.367	-264.827	112.089	234.364	-179.815	83.378	257.025	-234.808	635.43	-331.871	86.539	600.412	-104.943	108.084	646.246	-5.0	-339.657	680.705	-342.487	-305.921	132.186	-87.608	-0.003474	0.003481	0.000926	-0.00681	0.008763	-0.000835
-354.133	114.263	-148.357	-264.809	112.077	234.362	-179.825	83.354	257.029	-234.825	635.422	-331.914	86.535	600.39	-104.925	108.056	646.252	-4.992	-339.643	680.691	-342.481	-305.941	132.154	-87.639	6.8e-05	-0.000185	0.007546	-0.003761	0.005846	-0.004437
-354.131	114.26	-148.345	-264.81	112.061	234.373	-179.836	83.33	257.017	-234.854	635.418	-331.922	86.589	600.411	-104.901	108.073	646.249	-4.986	-339.663	680.698	-342.492	-305.946	132.156	-87.643	-0.003497	0.003469	0.00311	0.001949	0.009516	0.001447
-354.125	114.255	-148.339	-264.8	112.053	234.358	-179.823	83.374	257.022	-234.853	635.419	-331.907	86.563	600.436	-104.906	108.048	646.275	-4.97	-339.681	680.693	-342.494	-305.93	132.169	-87.613	0.000937	0.006971	-0.001269	-0.003696	0.009487	-0.003105
-354.129	114.254	-148.363	-264.826	112.057	234.357	-179.822	83.383	257.013	-234.885	635.421	-331.912	86.577	600.408	-104.887	108.047	646.301	-4.951	-339.687	680.679	-342.498	-305.938	132.159	-87.641	-0.002065	0.005548	-0.001312	-0.008039	0.009453	-0.001071
-354.131	114.26	-148.364	-264.836	112.067	234.343	-179.851	83.376	257.01	-234.923	635.399	-331.953	86.579	600.471	-104.874	108.007	646.304	-4.936	-339.706	680.684	-342.51	-305.915	132.174	-87.632	-0.001585	-0.001693	0.005266	-0.004984	0.007213	-0.003202
-354.138	114.259	-148.358	-264.826	112.064	234.342	-179.846	83.37	257.005	-234.932	635.413	-331.957	86.566	600.46	-104.824	107.973	646.338	-4.906	-339.724	680.686	-342.5	-305.933	132.175	-87.64	0.005006	0.004799	0.008103	0.005257	0.006458	-0.003679
-354.137	114.25	-148.349	-264.838	112.057	234.358	-179.855	83.377	257.005	-234.943	635.404	-331.929	86.546	600.489	-104.81	107.951	646.37	-4.878	-339.74	680.657	-342.503	-305.941	132.168	-87.669	-9.7e-05	0.006332	0.002908	0.004693	0.005658	-0.008036
-354.135	114.255	-148.35	-264.852	112.066	234.359	-179.856	83.379	257.004	-234.972	635.392	-331.975	86.544	600.504	-104.791	107.93	646.387	-4.856	-339.757	680.662	-342.52	-305.935	132.152	-87.626	-0.006038	0.003561	0.000645	0.002478	0.003432	-0.005159
-354.135	114.261	-148.357	-264.848	112.059	234.364	-179.845	83.366	257.025	-234.992	635.392	-331.979	86.528	600.57	-104.768	107.916	646.415	-4.814	-339.769	680.65	-342.513	-305.922	132.171	-87.601	-0.001061	0.000618	0.00358	-0.000421	-0.000971	-0.004472
-354.142	114.259	-148.356	-264.83	112.054	234.373	-179.847	83.357	257.006	-235.009	635.374	-331.984	86.517	600.544	-104.703	107.867	646.432	-4.781	-339.764	680.647	-342.533	-305.955	132.162	-87.638	-0.000224	0.007087	-0.000861	0.004553	-0.000276	0.002202
-354.133	114.262	-148.353	-264.842	112.046	234.368	-179.846	83.364	257.011	-235.006	635.37	-331.97	86.488	600.615	-104.726	107.852	646.469	-4.751	-339.788	680.64	-342.54	-305.944	132.183	-87.626	0.001218	0.008491	0.002044	0.000262	0.002601	0.000625
-354.147	114.259	-148.342	-264.842	112.051	234.363	-179.858	83.355	257.001	-235.004	635.35	-331.995	86.494	600.629	-104.691	107.815	646.495	-4.725	-339.802	680.634	-342.54	-305.949	132.152	-87.647	0.001763	-0.001026	0.002886	0.002457	-0.00176	0.000677
-354.139	114.264	-148.352	-264.842	112.06	234.353	-179.846	83.373	257.013	-235.014	635.365	-331.993	86.529	600.653	-104.653	107.806	646.534	-4.674	-339.815	680.638	-342.527	-305.966	132.145	-87.678	-0.002504	0.005579	0.007903	-0.001955	0.005522	0.003419
-354.137	114.257	-148.357	-264.843	112.054	234.352	-179.853	83.382	257.02	-235.011	635.377	-332.008	86.527	600.678	-104.637	107.791	646.575	-4.639	-339.988	680.748	-342.353	-305.932	132.169	-87.653	-0.007639	0.00338	0.005724	-0.001145	0.00259	0.001968
-354.126	114.248	-148.344	-264.838	112.058	234.365	-179.86	83.354	257.011	-235.032	635.358	-332.037	86.535	600.74	-104.609	107.787	646.603	-4.61	-339.979	680.737	-342.371	-305.946	132.166	-87.635	-0.005488	0.000372	0.002142	-0.002696	-0.000293	0.006976
-354.138	114.252	-148.355	-264.867	112.048	234.361	-179.84	83.356	257.016	-235.05	635.365	-332.019	86.556	600.706	-104.57	107.771	646.639	-4.571	-339.957	680.686	-342.392	-305.929	132.153	-87.67	-0.005464	0.003379	0.005723	0.000412	0.001137	0.001189
-354.129	114.259	-148.358	-264.859	112.04	234.348	-179.848	83.36	257.015	-235.047	635.356	-331.994	86.568	600.774	-104.524	107.73	646.671	-4.54	-339.96	680.673	-342.397	-305.91	132.157	-87.627	0.001834	0.004835	0.00279	-0.004664	-0.001766	0.002464
-354.131	114.252	-148.349	-264.824	112.035	234.367	-179.84	83.358	257.014	-235.066	635.345	-332.012	86.557	600.79	-104.528	107.738	646.704	-4.499	-339.953	680.632	-342.422	-305.927	132.135	-87.648	0.009803	0.007061	0.001988	-0.003771	-0.001796	-0.001914
-354.133	114.253	-148.357	-264.863	112.051	234.371	-179.837	83.365	257.017	-235.077	635.349	-332.011	86.581	600.827	-104.491	107.734	646.738	-4.473	-339.968	680.631	-342.451	-305.916	132.156	-87.625	0.005453	0.010895	-0.00547	0.000592	-0.00617	-0.000356
-354.129	114.241	-148.355	-264.857	112.056	234.381	-179.852	83.378	257.007	-235.103	635.346	-332.046	86.566	600.849	-104.491	107.717	646.761	-4.451	-339.966	680.607	-342.469	-305.924	132.151	-87.664	0.005341	0.011027	0.002467	0.002835	-0.002541	-0.001078
-354.125	114.246	-148.347	-264.868	112.055	234.361	-179.852	83.367	257.005	-235.117	635.332	-332.021	86.609	600.861	-104.442	107.719	646.775	-4.423	-339.979	680.593	-342.489	-305.893	132.153	-87.635	0.004564	0.006524	-0.002551	0.002883	-0.002493	-0.001189
-354.124	114.25	-148.342	-264.849	112.043	234.363	-179.862	83.359	257.015	-235.16	635.312	-332.051	86.607	600.886	-104.417	107.71	646.814	-4.381	-339.962	680.567	-342.499	-305.932	132.135	-87.622	0.003218	0.009983	-0.003973	0.005072	-0.001684	0.000175
-354.12	114.238	-148.347	-264.841	112.049	234.362	-179.866	83.352	257.013	-235.141	635.31	-332.04	86.574	600.886	-104.424	107.683	646.834	-4.37	-339.97	680.573	-342.535	-305.941	132.136	-87.644	-0.002051	0.00264	0.001209	0.002894	0.004172	0.002179
-354.107	114.245	-148.354	-264.847	112.036	234.357	-179.871	83.353	257.007	-235.159	635.306	-332.054	86.575	600.934	-104.396	107.663	646.842	-4.341	-339.961	680.536	-342.535	-305.917	132.144	-87.658	0.001525	-0.001948	0.002071	-0.000807	0.003466	0.007095
-354.119	114.24	-148.344	-264.859	112.055	234.35	-179.86	83.349	257.005	-235.168	635.303	-332.087	86.604	600.957	-104.336	107.667	646.874	-4.324	-339.98	680.523	-342.531	-305.931	132.138	-87.625	-0.005049	-0.000338	0.007818	-0.0014	0.004165	0.004838
-354.119	114.233	-148.358	-264.851	112.049	234.375	-179.851	83.37	257.018	-235.188	635.306	-332.067	86.575	600.951	-104.345	107.633	646.892	-4.304	-339.987	680.518	-342.554	-305.93	132.124	-87.679	-0.008738	-0.003164	0.005621	-0.000563	0.006309	0.004777
-354.101	114.227	-148.362	-264.868	112.058	234.365	-179.849	83.369	257.024	-235.189	635.284	-332.075	86.589	600.961	-104.325	107.623	646.914	-4.292	-340.012	680.522	-342.532	-305.921	132.125	-87.618	-0.004294	0.000477	0.005599	-0.005445	0.000425	0.000267
-354.102	114.222	-148.372	-264.852	112.026	234.361	-179.863	83.345	257.004	-235.205	635.293	-332.084	86.523	601.056	-104.39	107.609	646.937	-4.273	-340.022	680.525	-342.557	-305.931	132.133	-87.649	-0.003488	0.006478	0.004736	-0.001163	0.001179	0.007523
-354.107	114.236	-148.37	-264.881	112.059	234.363	-179.854	83.35	257.016	-235.222	635.305	-332.083	86.567	601.03	-104.333	107.602	646.96	-4.248	-340.036	680.506	-342.543	-305.92	132.139	-87.634	-0.000557	0.006512	0.004744	-0.00512	0.000403	-0.0036
-354.109	114.231	-148.388	-264.856	112.056	234.367	-179.866	83.347	257.014	-235.222	635.286	-332.089	86.555	601.03	-104.331	107.58	646.952	-4.254	-340.047	680.516	-342.553	-305.912	132.132	-87.641	0.000216	0.008763	0.004706	-0.002121	0.001133	-0.00221
-354.125	114.233	-148.352	-264.866	112.036	234.353	-179.851	83.352	257.007	-235.255	635.297	-332.091	86.554	601.05	-104.296	107.561	646.972	-4.226	-340.06	680.522	-342.55	-305.91	132.15	-87.667	0.003189	0.007942	-0.001058	-0.00196	0.001118	-0.003783
-354.111	114.232	-148.357	-264.862	112.041	234.359	-179.863	83.362	257.003	-235.278	635.291	-332.126	86.516	601.036	-104.284	107.534	646.985	-4.229	-340.096	680.523	-342.559	-305.901	132.136	-87.635	-0.004058	0.008794	0.003285	0.000267	0.003299	-0.001653
-354.117	114.234	-148.365	-264.867	112.035	234.362	-179.853	83.351	256.998	-235.304	635.292	-332.114	86.5	601.106	-104.306	107.503	647.003	-4.214	-340.102	680.522	-342.552	-305.913	132.136	-87.61	0.002567	0.007125	0.002714	-0.000364	0.001112	-0.001762
-354.114	114.239	-148.343	-264.882	112.052	234.346	-179.855	83.359	257.012	-235.316	635.303	-332.147	86.524	601.084	-104.28	107.493	647.002	-4.216	-340.119	680.507	-342.555	-305.921	132.135	-87.631	0.000439	0.006329	0.002051	-0.001855	0.004039	0.003171
-354.11	114.232	-148.367	-264.862	112.031	234.362	-179.881	83.35	257.007	-235.322	635.301	-332.152	86.52	601.1	-104.258	107.503	647.02	-4.183	-340.146	680.528	-342.553	-305.923	132.141	-87.628	0.002571	-0.001786	-0.000692	-0.000765	-0.000389	-0.007036
-354.107	114.23	-148.368	-264.881	112.044	234.359	-179.875	83.35	257.002	-235.353	635.326	-332.169	86.483	601.129	-104.284	107.479	647.026	-4.201	-340.173	680.523	-342.555	-305.907	132.12	-87.616	0.001903	-0.001069	-0.000668	0.00208	0.006919	-0.001286
-354.109	114.208	-148.351	-264.854	112.024	234.35	-179.886	83.332	256.991	-235.37	635.306	-332.182	86.465	601.108	-104.247	107.477	647.037	-4.183	-340.183	680.517	-342.56	-305.921	132.128	-87.673	0.006282	-0.001841	0.002307	0.001519	0.004712	-0.003573
-354.123	114.211	-148.36	-264.893	112.048	234.351	-179.871	83.351	257.016	-235.393	635.301	-332.174	86.476	601.164	-104.275	107.476	647.039	-4.16	-340.214	680.543	-342.566	-305.926	132.133	-87.639	0.005609	0.001103	0.002266	0.00083	0.006177	-0.002232
-354.111	114.211	-148.35	-264.881	112.029	234.365	-179.869	83.37	257.016	-235.407	635.312	-332.211	86.456	601.172	-104.28	107.433	647.038	-4.166	-340.258	680.567	-342.556	-305.932	132.125	-87.628	0.00633	0.001839	0.003708	0.00091	0.00543	-0.002293
-354.139	114.211	-148.365	-264.883	112.026	234.367	-179.889	83.34	256.997	-235.439	635.293	-332.181	86.444	601.196	-104.276	107.427	647.057	-4.158	-340.259	680.552	-342.566	-305.916	132.129	-87.639	-0.000123	0.008477	0.00578	-0.003416	0.006878	-0.000314
-354.139	114.219	-148.378	-264.88	112.019	234.356	-179.863	83.368	257.012	-235.461	635.317	-332.209	86.438	601.199	-104.269	107.405	647.053	-4.142	-340.292	680.559	-342.576	-305.916	132.142	-87.601	0.006338	0.003241	0.00882	-0.000425	0.005385	-0.000275
-354.122	114.221	-148.366	-264.885	112.013	234.354	-179.864	83.352	257.001	-235.475	635.309	-332.216	86.494	601.192	-104.238	107.402	647.08	-4.131	-340.291	680.563	-342.568	-305.906	132.148	-87.642	0.002824	0.006099	0.002991	0.000464	0.008989	-0.00395
-354.139	114.234	-148.368	-264.894	112.032	234.348	-179.872	83.36	257.005	-235.493	635.331	-332.22	86.466	601.203	-104.236	107.399	647.075	-4.128	-340.312	680.554	-342.583	-305.909	132.123	-87.651	-0.001644	0.000367	0.006678	-0.001786	0.003871	0.001082
-354.133	114.216	-148.352	-264.882	112.038	234.335	-179.862	83.361	256.99	-235.51	635.332	-332.241	86.453	601.234	-104.265	107.383	647.083	-4.129	-340.336	680.563	-342.581	-305.905	132.134	-87.639	0.002843	0.004656	0.006692	-0.003067	0.005257	-0.002609
-354.121	114.221	-148.352	-264.885	112.042	234.347	-179.873	83.351	257.014	-235.519	635.322	-332.24	86.446	601.215	-104.223	107.38	647.093	-4.117	-340.349	680.557	-342.59	-305.91	132.131	-87.664	-0.000828	0.002549	0.005226	-0.000205	0.003057	0.00109
-354.141	114.215	-148.362	-264.862	112.006	234.362	-179.884	83.355	256.993	-235.548	635.306	-332.272	86.413	601.213	-104.271	107.366	647.085	-4.12	-340.368	680.521	-342.58	-305.897	132.135	-87.633	-0.003731	0.001895	0.003755	-0.002218	-0.000617	-0.003344
-354.115	114.224	-148.375	-264.874	112.032	234.345	-179.872	83.357	257.001	-235.563	635.298	-332.236	86.456	601.233	-104.234	107.377	647.091	-4.114	-340.382	680.528	-342.569	-305.931	132.136	-87.661	-2.9e-05	0.001844	0.000893	0.0043	0.006664	-0.000345
-354.142	114.215	-148.353	-264.862	112.026	234.35	-179.872	83.36	256.998	-235.579	635.266	-332.282	86.418	601.249	-104.209	107.368	647.11	-4.112	-340.409	680.528	-342.565	-305.91	132.12	-87.661	-0.001448	0.002657	0.002335	-0.001455	0.002316	-0.000568
-354.125	114.219	-148.352	-264.847	112.01	234.357	-179.87	83.348	256.998	-235.58	635.253	-332.251	86.442	601.233	-104.22	107.381	647.106	-4.104	-340.39	680.518	-342.564	-305.923	132.116	-87.658	-0.002838	0.002724	0.000892	0.002967	0.010303	-0.001238
-354.119	114.206	-148.36	-264.857	112.024	234.346	-179.862	83.342	257.001	-235.577	635.255	-332.257	86.432	601.223	-104.207	107.384	647.116	-4.095	-340.387	680.539	-342.543	-305.897	132.122	-87.66	-0.004073	0.005745	0.004596	-0.004934	0.007387	-0.002948
-354.14	114.211	-148.35	-264.866	112.041	234.347	-179.862	83.347	257.009	-235.585	635.274	-332.266	86.462	601.274	-104.212	107.388	647.114	-4.084	-340.393	680.545	-342.547	-305.926	132.102	-87.67	-0.000346	0.002716	0.002566	-0.00218	0.00451	0.004354
-354.126	114.207	-148.381	-264.853	112.031	234.343	-179.862	83.353	256.999	-235.569	635.297	-332.251	86.453	601.213	-104.185	107.395	647.127	-4.079	-340.397	680.572	-342.545	-305.939	132.129	-87.699	-0.000278	-0.000283	-0.000224	-0.004195	0.000842	-8.6e-05
-354.111	114.22	-148.378	-264.858	112.038	234.356	-179.858	83.353	257.004	-235.551	635.325	-332.22	86.498	601.266	-104.205	107.425	647.117	-4.069	-340.388	680.586	-342.547	-305.907	132.138	-87.677	-0.000235	-0.000985	0.002741	-0.001951	0.003	-0.000785
-354.115	114.212	-148.363	-264.855	112.021	234.331	-179.863	83.358	256.996	-235.529	635.351	-332.208	86.524	601.287	-104.173	107.413	647.12	-4.054	-340.381	680.598	-342.539	-305.915	132.096	-87.658	0.001309	0.001166	0.002031	0.002492	0.003683	-0.002125
-354.119	114.2	-148.36	-264.867	112.019	234.35	-179.863	83.372	257.007	-235.545	635.375	-332.234	86.515	601.268	-104.149	107.433	647.12	-4.031	-340.364	680.585	-342.519	-305.884	132.126	-87.675	0.005093	0.004733	-0.001585	-0.000549	0.004415	0.003606
-354.107	114.204	-148.374	-264.874	112.014	234.356	-179.861	83.358	257.004	-235.533	635.377	-332.21	86.568	601.289	-104.145	107.432	647.159	-4.009	-340.347	680.591	-342.519	-305.932	132.093	-87.682	-9.3e-05	0.002053	0.004195	-0.002633	-0.004341	0.001382
-354.108	114.215	-148.361	-264.874	112.04	234.352	-179.863	83.332	256.999	-235.521	635.38	-332.201	86.538	601.28	-104.102	107.436	647.163	-3.996	-340.38	680.603	-342.502	-305.856	132.141	-87.604	-0.003631	0.004335	-0.000216	-0.001089	0.005859	-0.00086
-354.112	114.2	-148.36	-264.858	112.023	234.36	-179.857	83.339	257.006	-235.546	635.366	-332.198	86.551	601.313	-104.088	107.441	647.194	-3.976	-340.382	680.609	-342.49	-305.895	132.089	-87.693	-0.002141	0.004302	0.000551	-0.003349	0.005884	0.003392
-354.101	114.198	-148.371	-265.593	112.951	234.793	-179.874	83.329	257.011	-235.559	635.345	-332.2	86.575	601.327	-104.059	107.44	647.197	-3.958	-340.394	680.621	-342.492	-305.922	132.114	-87.671	-0.002098	0.003535	0.000608	0.001789	0.005168	0.00346
-354.111	114.207	-148.352	-265.436	112.768	234.735	-179.853	83.35	257.002	-235.556	635.351	-332.225	86.565	601.342	-104.072	107.418	647.193	-3.941	-340.394	680.61	-342.48	-305.89	132.113	-87.655	-0.000656	0.002025	0.005774	0.000411	6.4e-05	0.001953
-354.086	114.215	-148.361	-265.3	112.619	234.675	-179.839	83.365	257.01	-235.556	635.322	-332.209	86.57	601.313	-104.049	107.409	647.213	-3.921	-340.398	680.608	-342.473	-305.902	132.124	-87.655	0.000158	0.002679	0.004375	0.002743	0.005857	-0.002394
-354.107	114.227	-148.352	-265.582	112.971	234.814	-179.872	83.343	257.008	-235.566	635.308	-332.187	86.541	601.301	-104.014	107.415	647.229	-3.895	-340.402	680.605	-342.473	-305.891	132.118	-87.632	-0.004094	0.005637	0.002899	-0.005415	6.6e-05	0.004648
-354.113	114.235	-148.339	-265.612	112.981	234.797	-179.856	83.361	257.018	-235.537	635.324	-332.217	86.545	601.298	-104.006	107.401	647.201	-3.885	-340.392	680.593	-342.464	-305.926	132.125	-87.64	0.001036	0.002592	0.000843	-0.005257	-0.000698	-0.000438
-354.123	114.24	-148.333	-265.449	112.804	234.747	-179.87	83.362	257.029	-235.531	635.306	-332.18	86.531	601.309	-103.983	107.415	647.195	-3.873	-340.375	680.587	-342.463	-305.942	132.13	-87.625	0.00105	0.002628	0.005232	-0.001568	0.005856	-0.002562
-354.113	114.244	-148.349	-265.328	112.64	234.681	-179.872	83.372	257.024	-235.515	635.314	-332.197	86.564	601.249	-103.992	107.416	647.171	-3.875	-340.366	680.584	-342.462	-305.938	132.121	-87.639	-0.000408	0.001197	0.005253	-0.002423	0.004421	0.002501
-354.137	114.239	-148.358	-265.25	112.527	234.609	-179.889	83.342	257.013	-235.494	635.31	-332.162	86.579	601.254	-103.997	107.426	647.139	-3.89	-340.346	680.571	-342.464	-305.918	132.136	-87.623	-0.002521	0.004171	0.005211	-0.000257	0.008784	0.00398
-354.122	114.25	-148.356	-265.151	112.412	234.565	-179.88	83.368	257.026	-235.489	635.294	-332.145	86.555	601.228	-104.007	107.425	647.108	-3.92	-340.334	680.547	-342.44	-305.942	132.139	-87.638	-0.002438	0.00632	0.002299	-0.000191	0.005822	0.003273
-354.131	114.246	-148.345	-265.105	112.341	234.513	-179.867	83.386	257.02	-235.464	635.271	-332.137	86.531	601.125	-103.998	107.434	647.101	-3.927	-340.304	680.533	-342.453	-305.931	132.141	-87.623	-0.000979	0.00484	0.002345	-0.002267	-4.4e-05	0.000344
-354.139	114.241	-148.345	-265.045	112.258	234.464	-179.885	83.351	257.007	-235.471	635.275	-332.129	86.477	601.126	-104.065	107.445	647.057	-3.977	-340.298	680.523	-342.458	-305.929	132.122	-87.638	-0.003843	0.00704	0.003047	0.000819	-0.00591	-0.006077
-354.137	114.24	-148.342	-264.979	112.174	234.434	-179.87	83.35	257.011	-235.457	635.283	-332.111	86.525	601.096	-104.095	107.444	647.044	-4.024	-340.298	680.541	-342.457	-305.926	132.131	-87.633	-0.000936	0.001816	-0.000455	-0.001354	-0.001515	-0.005485
-354.13	114.248	-148.339	-264.945	112.146	234.42	-179.869	83.351	256.997	-235.431	635.283	-332.119	86.503	601.111	-104.131	107.455	647.001	-4.085	-340.261	680.516	-342.476	-305.934	132.147	-87.633	0.001302	0.000974	-0.002559	0.005293	0.002876	-0.008312
-354.129	114.222	-148.348	-264.891	112.088	234.381	-179.856	83.361	257.021	-235.421	635.264	-332.124	86.449	601.026	-104.214	107.475	646.981	-4.131	-340.267	680.535	-342.477	-305.908	132.143	-87.614	0.002025	-0.001215	-0.001778	0.00664	0.003668	-0.003986
-354.132	114.231	-148.353	-264.865	112.038	234.337	-179.855	83.354	256.995	-235.404	635.283	-332.154	86.465	600.978	-104.239	107.47	646.938	-4.188	-340.238	680.514	-342.502	-305.934	132.11	-87.659	0.003447	-0.003332	0.004087	0.00281	0.005917	0.00313
-354.118	114.224	-148.354	-264.863	112.055	234.355	-179.848	83.354	257.013	-235.381	635.268	-332.165	86.49	600.985	-104.272	107.495	646.916	-4.239	-340.237	680.504	-342.53	-305.916	132.125	-87.651	-0.003747	-0.001023	0.001112	0.00433	0.00445	0.000281
-354.12	114.238	-148.36	-264.857	112.042	234.339	-179.847	83.364	257.005	-235.368	635.245	-332.141	86.431	600.928	-104.346	107.489	646.87	-4.284	-340.214	680.489	-342.555	-305.907	132.155	-87.62	-0.00221	0.001095	-0.001788	0.006441	0.003753	0.001089
-354.117	114.22	-148.344	-264.875	112.056	234.335	-179.825	83.378	256.999	-235.361	635.25	-332.165	86.407	600.931	-104.394	107.499	646.853	-4.337	-340.189	680.457	-342.584	-305.898	132.149	-87.629	0.000733	0.000277	-0.003913	-0.001644	0.00597	0.002343
-354.121	114.228	-148.367	-264.838	112.042	234.346	-179.838	83.349	257.0	-235.359	635.226	-332.184	86.383	600.927	-104.451	107.522	646.831	-4.369	-340.194	680.464	-342.601	-305.915	132.124	-87.671	0.000627	-0.003285	0.002662	0.000508	0.007456	0.00168
-354.128	114.218	-148.367	-264.833	112.039	234.347	-179.842	83.369	256.994	-235.345	635.209	-332.202	86.397	600.87	-104.45	107.526	646.787	-4.422	-340.17	680.444	-342.628	-305.882	132.144	-87.625	0.003482	-0.006249	0.001249	-0.003133	0.011129	0.000117
-354.135	114.211	-148.353	-264.845	112.038	234.351	-179.836	83.376	257.015	-235.326	635.192	-332.194	86.356	600.825	-104.466	107.531	646.749	-4.465	-340.152	680.427	-342.642	-305.943	132.101	-87.684	0.000626	-0.001815	0.00043	-0.00744	0.006814	-0.002935
-354.126	114.21	-148.369	-264.85	112.051	234.337	-179.838	83.354	257.006	-235.335	635.179	-332.195	86.381	600.81	-104.508	107.55	646.723	-4.486	-340.134	680.422	-342.659	-305.909	132.136	-87.667	-0.001498	0.00114	-0.00181	-0.006154	0.014898	0.002118
-354.131	114.222	-148.378	-264.857	112.043	234.348	-179.824	83.343	257.012	-235.31	635.17	-332.206	86.367	600.759	-104.544	107.559	646.692	-4.517	-340.133	680.414	-342.682	-305.91	132.131	-87.661	-0.000115	0.001189	0.004717	-0.002497	0.009095	6.2e-05
-354.125	114.222	-148.384	-264.849	112.031	234.342	-179.844	83.357	256.996	-235.278	635.161	-332.227	86.344	600.715	-104.55	107.56	646.652	-4.537	-340.109	680.408	-342.689	-305.931	132.138	-87.664	0.000553	0.000505	0.005414	-0.001746	0.011982	-0.002055
-354.135	114.221	-148.37	-264.841	112.035	234.353	-179.851	83.356	256.996	-235.264	635.14	-332.2	86.381	600.729	-104.557	107.569	646.626	-4.561	-340.094	680.39	-342.706	-305.914	132.149	-87.661	-0.000927	-0.000915	-0.00117	-0.001664	0.01265	-0.006328
-354.132	114.231	-148.361	-264.843	112.038	234.346	-179.849	83.369	257.001	-235.247	635.132	-332.205	86.382	600.666	-104.565	107.585	646.606	-4.573	-340.087	680.383	-342.715	-305.922	132.147	-87.686	-0.000128	0.006485	0.001605	0.000412	0.009691	-0.00396
-354.139	114.232	-148.372	-264.854	112.046	234.345	-179.847	83.352	256.996	-235.226	635.138	-332.189	86.34	600.662	-104.596	107.596	646.599	-4.589	-340.038	680.349	-342.738	-305.909	132.171	-87.663	-0.00308	0.006575	0.001546	-0.001769	0.011092	-0.006082
-354.141	114.235	-148.38	-264.873	112.05	234.338	-179.857	83.358	256.984	-235.197	635.106	-332.196	86.334	600.643	-104.633	107.568	646.554	-4.613	-340.038	680.346	-342.757	-305.916	132.153	-87.673	-0.00238	0.006571	0.002262	0.000108	0.007452	0.003535
-354.144	114.236	-148.37	-264.85	112.039	234.338	-179.844	83.374	257.011	-235.213	635.103	-332.183	86.341	600.644	-104.634	107.572	646.516	-4.626	-340.001	680.327	-342.754	-305.925	132.155	-87.653	0.001132	0.000745	0.008172	-0.002778	0.005948	-0.000752
-354.143	114.228	-148.383	-264.854	112.031	234.344	-179.847	83.36	257.002	-235.184	635.09	-332.185	86.296	600.633	-104.647	107.569	646.521	-4.645	-339.999	680.328	-342.762	-305.926	132.161	-87.651	-0.003243	-0.000692	0.003794	-0.002842	0.00445	-0.001335
-354.133	114.226	-148.387	-264.855	112.03	234.346	-179.835	83.358	256.985	-235.164	635.076	-332.192	86.327	600.607	-104.642	107.572	646.508	-4.658	-339.987	680.33	-342.763	-305.952	132.132	-87.692	0.0011	-0.002282	0.006056	-0.002213	0.006593	-0.00117
-354.124	114.223	-148.37	-265.579	112.975	234.781	-179.832	83.356	257.01	-235.135	635.086	-332.179	86.277	600.625	-104.67	107.558	646.496	-4.668	-339.968	680.317	-342.77	-305.92	132.157	-87.631	0.00317	-0.011875	0.004042	0.002041	0.0022	-0.000181
-354.121	114.213	-148.384	-265.579	112.968	234.775	-179.844	83.357	256.987	-235.11	635.079	-332.15	86.297	600.585	-104.662	107.554	646.497	-4.679	-339.934	680.305	-342.769	-305.955	132.117	-87.679	0.001481	-0.023451	0.009981	-0.000299	0.002946	0.002745
-354.134	114.225	-148.378	-265.574	112.946	234.771	-179.832	83.341	257.001	-235.103	635.07	-332.163	86.292	600.591	-104.655	107.576	646.477	-4.677	-339.908	680.289	-342.783	-305.933	132.144	-87.685	0.012901	-0.037368	0.007999	0.001017	-0.000679	0.005057
-354.136	114.226	-148.371	-265.569	112.96	234.787	-179.839	83.358	257.005	-235.092	635.055	-332.135	86.244	600.569	-104.659	107.58	646.465	-4.691	-339.911	680.278	-342.788	-305.893	132.145	-87.665	0.012097	-0.042212	-0.002261	0.000316	5.9e-05	0.00074
-354.135	114.208	-148.37	-265.556	112.948	234.79	-179.859	83.331	256.978	-235.066	635.083	-332.132	86.341	600.539	-104.641	107.59	646.445	-4.688	-339.895	680.292	-342.778	-305.935	132.131	-87.654	0.012079	-0.036492	-0.005505	7.1e-05	-0.002779	0.006599
-354.135	114.224	-148.381	-265.4	112.739	234.698	-179.845	83.347	256.999	-235.039	635.082	-332.119	86.287	600.515	-104.667	107.605	646.448	-4.7	-340.03	680.398	-342.585	-305.943	132.132	-87.662	0.005366	-0.030961	-0.002419	0.002962	0.000154	0.003109
-354.137	114.226	-148.375	-265.301	112.609	234.642	-179.839	83.359	256.991	-235.033	635.064	-332.121	86.325	600.541	-104.664	107.629	646.439	-4.697	-340.017	680.398	-342.591	-305.933	132.142	-87.668	0.007084	-0.010539	-0.022684	-8.7e-05	0.00314	0.003792
-354.127	114.23	-148.385	-265.197	112.52	234.571	-179.848	83.354	257.005	-234.996	635.055	-332.086	86.308	600.501	-104.666	107.627	646.422	-4.699	-339.977	680.364	-342.607	-305.917	132.142	-87.668	0.005886	-0.009391	-0.005783	0.002747	-0.000427	0.001746
-354.139	114.228	-148.368	-265.139	112.428	234.533	-179.863	83.356	256.995	-234.996	635.043	-332.082	86.338	600.544	-104.668	107.646	646.396	-4.701	-339.941	680.336	-342.638	-305.923	132.152	-87.632	0.003621	0.005929	-0.002746	-0.001662	-0.001118	0.000224
-354.14	114.234	-148.359	-265.074	112.314	234.488	-179.861	83.341	256.997	-234.988	635.041	-332.089	86.337	600.521	-104.681	107.668	646.405	-4.693	-339.896	680.305	-342.657	-305.944	132.139	-87.644	-0.000451	0.000581	-0.006716	-8.8e-05	0.00036	-0.0077
-354.142	114.226	-148.37	-265.031	112.244	234.467	-179.864	83.338	257.006	-234.953	635.012	-332.073	86.324	600.501	-104.681	107.686	646.384	-4.701	-339.873	680.285	-342.689	-305.917	132.139	-87.637	0.003258	-0.014416	-0.004693	-0.004592	0.004027	-0.004874
-354.123	114.227	-148.361	-264.958	112.176	234.43	-179.86	83.347	257.011	-234.946	634.997	-332.073	86.342	600.492	-104.688	107.691	646.373	-4.695	-339.835	680.276	-342.706	-305.892	132.132	-87.628	0.001294	-0.016189	0.001475	-0.001791	-0.001021	-0.002591
-354.132	114.233	-148.361	-264.929	112.139	234.396	-179.861	83.341	256.996	-234.929	634.997	-332.041	86.356	600.469	-104.686	107.707	646.372	-4.68	-339.779	680.239	-342.729	-305.898	132.14	-87.65	-0.008412	-0.004679	0.003791	0.002454	0.001939	-0.000297
-354.116	114.225	-148.366	-264.872	112.075	234.382	-179.871	83.334	257.004	-234.909	634.988	-332.007	86.364	600.459	-104.672	107.714	646.347	-4.697	-339.758	680.21	-342.754	-305.895	132.14	-87.598	-0.007205	0.004535	0.001817	0.000914	-0.001685	0.000465
-354.115	114.232	-148.391	-264.844	112.039	234.361	-179.855	83.343	257.015	-234.892	634.97	-331.996	86.355	600.456	-104.698	107.725	646.329	-4.712	-339.727	680.193	-342.744	-305.917	132.112	-87.654	-0.009711	0.012533	0.007063	-0.002763	-0.000228	-0.00101
-354.111	114.23	-148.354	-264.857	112.049	234.356	-179.847	83.351	257.007	-234.876	634.974	-332.003	86.363	600.415	-104.67	107.708	646.32	-4.707	-339.702	680.171	-342.771	-305.909	132.125	-87.66	-0.011442	0.0204	0.00433	-0.003641	-0.000931	0.003359
-354.121	114.226	-148.353	-265.567	112.985	234.81	-179.851	83.368	257.017	-234.856	634.978	-331.973	86.39	600.456	-104.711	107.726	646.296	-4.72	-339.66	680.159	-342.788	-305.947	132.126	-87.645	-0.008842	0.024476	0.003175	-0.002959	0.00272	0.003398
-354.11	114.243	-148.371	-265.547	112.966	234.791	-179.86	83.352	257.001	-234.848	634.99	-331.956	86.398	600.413	-104.688	107.734	646.295	-4.73	-339.661	680.163	-342.78	-305.906	132.134	-87.646	-0.001157	0.02549	0.005063	-0.003778	0.002735	0.005586
-354.123	114.248	-148.372	-265.584	112.971	234.803	-179.838	83.366	257.001	-234.85	634.989	-331.945	86.377	600.4	-104.704	107.752	646.288	-4.74	-339.636	680.165	-342.776	-305.936	132.138	-87.624	-0.000783	0.0207	0.005578	-0.005219	0.003469	0.004106
-354.121	114.224	-148.345	-265.586	112.981	234.812	-179.858	83.34	256.994	-234.845	634.995	-331.95	86.399	600.358	-104.701	107.755	646.267	-4.763	-339.627	680.154	-342.771	-305.952	132.106	-87.671	-0.000234	0.023119	0.01046	-0.005855	-0.003814	-0.000229
-354.116	114.235	-148.369	-265.423	112.776	234.727	-179.847	83.347	257.003	-234.823	634.994	-331.933	86.353	600.357	-104.723	107.765	646.254	-4.763	-339.801	680.307	-342.574	-305.888	132.147	-87.602	0.002706	0.028207	0.003051	-0.005297	0.002775	0.004861
-354.113	114.234	-148.363	-265.309	112.64	234.654	-179.849	83.34	257.007	-234.812	635.0	-331.92	86.338	600.35	-104.743	107.788	646.247	-4.768	-339.787	680.304	-342.582	-305.929	132.138	-87.617	-0.005504	0.024084	0.005117	-0.003758	0.000573	0.001294
-354.115	114.237	-148.354	-265.218	112.504	234.58	-179.858	83.336	257.001	-234.829	634.995	-331.937	86.355	600.327	-104.751	107.773	646.215	-4.802	-339.782	680.302	-342.587	-305.944	132.116	-87.643	0.000217	0.023329	0.010209	0.000614	0.007117	0.000667
-354.107	114.241	-148.34	-265.157	112.41	234.549	-179.85	83.337	257.015	-234.808	635.007	-331.931	86.383	600.328	-104.774	107.786	646.206	-4.803	-339.755	680.3	-342.596	-305.924	132.104	-87.633	0.007469	0.023227	0.009504	-0.000205	-0.000123	0.002858
-354.112	114.22	-148.363	-265.046	112.318	234.499	-179.874	83.328	257.005	-234.83	635.016	-331.951	86.335	600.308	-104.798	107.801	646.186	-4.84	-339.749	680.284	-342.629	-305.917	132.149	-87.646	0.01102	0.023384	0.01233	0.001326	0.001346	-0.002173
-354.122	114.23	-148.36	-265.044	112.26	234.459	-179.872	83.341	256.993	-234.831	635.012	-331.972	86.357	600.281	-104.797	107.808	646.165	-4.856	-339.744	680.267	-342.658	-305.867	132.149	-87.613	0.013242	0.027296	0.012922	-0.000935	0.005006	-0.000765
-354.119	114.219	-148.34	-264.948	112.178	234.417	-179.862	83.342	256.989	-234.833	635.017	-331.984	86.368	600.283	-104.813	107.804	646.149	-4.868	-339.72	680.27	-342.668	-305.915	132.139	-87.62	0.013901	0.021857	0.016548	-0.000172	0.00064	-0.002896
-354.126	114.234	-148.354	-264.928	112.118	234.394	-179.848	83.36	257.002	-234.86	635.015	-331.983	86.344	600.266	-104.831	107.825	646.119	-4.878	-339.719	680.257	-342.69	-305.917	132.135	-87.625	0.02287	0.02044	0.007225	-0.000995	0.007921	0.0007
-354.136	114.229	-148.353	-264.903	112.083	234.363	-179.851	83.355	257.002	-234.837	635.012	-331.986	86.339	600.225	-104.85	107.81	646.096	-4.902	-339.7	680.246	-342.722	-305.909	132.126	-87.642	0.025862	0.014123	0.023465	0.003448	0.004277	-0.002798
-354.135	114.234	-148.359	-264.867	112.029	234.358	-179.854	83.345	256.997	-234.853	635.014	-331.998	86.323	600.267	-104.875	107.83	646.084	-4.918	-339.693	680.25	-342.735	-305.943	132.137	-87.66	0.027586	0.00678	0.020173	-0.000905	0.001346	-0.004303
-354.125	114.232	-148.348	-264.837	112.014	234.352	-179.852	83.345	257.001	-234.843	635.024	-331.96	86.298	600.215	-104.9	107.838	646.06	-4.94	-339.697	680.249	-342.739	-305.927	132.133	-87.657	0.029373	0.003148	0.026334	0.001316	0.002779	-0.006395
-354.143	114.233	-148.357	-264.874	112.048	234.34	-179.853	83.338	256.986	-234.85	635.039	-331.977	86.307	600.16	-104.885	107.84	646.035	-4.955	-339.683	680.238	-342.762	-305.946	132.116	-87.677	0.034987	0.003127	0.024502	-0.006046	0.007155	-0.003677
-354.134	114.22	-148.34	-264.851	112.028	234.361	-179.846	83.347	256.993	-234.851	635.036	-331.992	86.321	600.174	-104.894	107.828	646.019	-4.982	-339.682	680.221	-342.796	-305.909	132.133	-87.638	0.044133	-0.001765	0.027041	-0.000966	0.002771	-0.004205
-354.121	114.232	-148.351	-264.845	112.046	234.339	-179.853	83.337	256.987	-234.876	635.058	-332.017	86.295	600.142	-104.92	107.82	646.012	-4.995	-339.679	680.227	-342.796	-305.924	132.112	-87.654	0.050483	-0.006356	0.020037	-0.003987	0.004944	-0.000612
-354.125	114.22	-148.347	-264.848	112.034	234.349	-179.86	83.36	257.0	-234.894	635.051	-332.088	86.291	600.176	-104.95	107.815	645.998	-5.023	-339.705	680.216	-342.803	-305.916	132.124	-87.648	0.048373	0.002577	0.023018	-0.000485	0.006413	0.00315
-354.125	114.215	-148.342	-264.851	112.019	234.352	-179.874	83.333	256.97	-234.953	635.029	-332.15	86.252	600.161	-104.985	107.817	645.995	-5.032	-339.752	680.236	-342.822	-305.926	132.129	-87.632	0.046283	0.002842	0.026186	-0.001962	0.002045	0.002446
-354.127	114.22	-148.345	-264.859	112.035	234.338	-179.854	83.339	256.997	-235.015	635.018	-332.253	86.24	600.163	-104.984	107.811	646.001	-5.042	-339.811	680.28	-342.835	-305.902	132.123	-87.636	0.05674	-0.001769	0.02536	-0.002133	0.007876	0.007559
-354.13	114.243	-148.354	-264.845	112.034	234.344	-179.859	83.329	256.978	-235.114	635.02	-332.359	86.269	600.185	-105.003	107.807	646.012	-5.063	-339.895	680.347	-342.844	-305.944	132.114	-87.631	0.046844	-0.021004	0.019738	-0.001292	0.00421	0.001831
-354.134	114.238	-148.332	-264.852	112.035	234.336	-179.856	83.342	256.978	-235.23	635.031	-332.5	86.234	600.184	-104.992	107.821	646.018	-5.064	-339.989	680.412	-342.848	-305.926	132.144	-87.657	0.058262	-0.045832	0.017489	-0.001955	0.006353	-0.001763
-354.136	114.242	-148.359	-264.834	112.021	234.335	-179.857	83.344	256.995	-235.36	635.042	-332.644	86.26	600.215	-105.008	107.828	646.005	-5.059	-340.103	680.523	-342.855	-305.927	132.122	-87.623	0.056304	-0.048308	0.016318	-0.001309	0.007818	-0.000965
-354.136	114.231	-148.349	-264.838	112.034	234.345	-179.853	83.329	256.99	-235.515	635.064	-332.783	86.249	600.187	-104.985	107.84	645.999	-5.065	-340.24	680.631	-342.869	-305.908	132.13	-87.638	0.057989	-0.044396	0.010445	0.001588	0.003487	-0.002322
-354.13	114.226	-148.359	-264.837	112.027	234.342	-179.843	83.316	256.995	-235.674	635.143	-332.988	86.213	600.153	-104.998	107.87	645.997	-5.053	-340.364	680.729	-342.914	-305.913	132.137	-87.614	0.044722	-0.043951	0.008483	-0.00067	0.00861	-0.001642
-354.132	114.22	-148.372	-264.809	112.028	234.353	-179.85	83.329	256.98	-235.822	635.215	-333.149	86.278	600.17	-105.013	107.903	645.983	-5.057	-340.505	680.845	-342.922	-305.905	132.122	-87.651	0.035174	-0.033129	0.007016	-5.3e-05	0.009352	0.000602
-354.118	114.208	-148.357	-264.801	112.044	234.367	-179.817	83.321	256.989	-235.971	635.292	-333.317	86.298	600.133	-104.977	107.931	645.98	-5.037	-340.681	680.974	-342.946	-305.928	132.111	-87.648	0.032657	-0.034677	0.0064	0.00133	0.003508	0.001476
-354.109	114.208	-148.361	-264.795	112.031	234.355	-179.812	83.335	256.992	-236.108	635.385	-333.429	86.312	600.15	-105.005	107.953	645.979	-5.05	-340.825	681.074	-342.964	-305.904	132.1	-87.666	0.024837	-0.03597	0.011406	0.00572	0.003484	-0.002667
-354.107	114.184	-148.382	-264.781	112.039	234.369	-179.806	83.306	256.978	-236.287	635.467	-333.557	86.323	600.148	-104.986	107.955	646.008	-5.048	-340.99	681.204	-342.981	-305.893	132.092	-87.66	0.030789	-0.030375	0.014895	-0.000239	0.002781	0.000853
-354.108	114.2	-148.387	-264.781	112.051	234.368	-179.782	83.313	256.986	-236.481	635.544	-333.731	86.326	600.166	-104.961	107.961	646.03	-5.039	-341.171	681.333	-342.978	-305.909	132.094	-87.669	0.053093	-0.026733	0.020548	0.00187	0.002087	0.000948
-354.109	114.179	-148.376	-264.792	112.088	234.364	-179.774	83.31	257.004	-236.67	635.607	-333.9	86.319	600.183	-104.966	107.962	646.055	-5.014	-341.355	681.48	-342.952	-305.917	132.092	-87.699	0.074853	-0.029088	0.019445	-0.00316	-9.5e-05	-0.004203
-354.123	114.179	-148.371	-264.725	112.075	234.396	-179.772	83.311	257.008	-236.876	635.692	-333.924	86.315	600.206	-104.932	107.958	646.089	-5.01	-341.51	681.564	-342.947	-305.893	132.098	-87.657	0.069651	-0.05111	0.017287	-0.002484	0.004273	-0.004147
-354.13	114.199	-148.377	-264.723	112.062	234.399	-179.773	83.303	257.017	-237.077	635.741	-334.098	86.292	600.254	-104.921	107.932	646.121	-4.979	-341.822	681.797	-342.755	-305.923	132.125	-87.631	0.0629	-0.04914	0.006246	-0.004688	0.002073	-0.004151
-354.151	114.217	-148.361	-264.75	112.092	234.398	-179.761	83.315	257.038	-237.253	635.8	-334.213	86.209	600.291	-104.88	107.918	646.166	-4.94	-341.989	681.885	-342.742	-305.969	132.127	-87.675	0.062919	-0.024408	0.023342	-0.003382	-0.002284	0.001015
-354.164	114.242	-148.368	-264.709	112.077	234.433	-179.775	83.284	257.037	-237.4	635.846	-334.324	86.238	600.32	-104.835	107.868	646.209	-4.9	-342.112	681.965	-342.759	-305.959	132.176	-87.63	0.061145	0.004714	0.035689	-0.003303	-0.003026	-0.001886
-354.159	114.258	-148.349	-264.719	112.091	234.431	-179.759	83.326	257.044	-237.529	635.922	-334.445	86.139	600.378	-104.818	107.818	646.254	-4.87	-342.188	681.975	-342.764	-305.953	132.177	-87.583	0.054002	0.023441	0.039583	-0.002675	-0.004465	0.001771
-354.188	114.266	-148.35	-264.744	112.119	234.436	-179.764	83.307	257.038	-237.649	635.979	-334.521	86.16	600.413	-104.782	107.765	646.323	-4.846	-342.329	682.075	-342.787	-305.973	132.2	-87.622	0.050071	0.017789	0.021643	-0.002895	0.003596	0.008289
-354.191	114.281	-148.336	-264.749	112.094	234.446	-179.788	83.312	257.036	-237.764	636.034	-334.613	86.127	600.457	-104.757	107.734	646.364	-4.826	-342.398	682.106	-342.847	-305.983	132.179	-87.612	0.039577	-0.011011	0.020756	-4e-06	0.008681	0.007663
-354.193	114.282	-148.328	-264.767	112.106	234.444	-179.777	83.334	257.055	-237.877	636.084	-334.706	86.087	600.486	-104.725	107.684	646.42	-4.817	-342.489	682.152	-342.896	-305.997	132.202	-87.563	0.045572	-0.034336	0.008707	-0.004474	0.007987	0.010464
-354.204	114.293	-148.306	-264.788	112.088	234.44	-179.788	83.318	257.052	-237.964	636.104	-334.782	86.062	600.495	-104.725	107.646	646.464	-4.814	-342.566	682.211	-342.964	-305.99	132.22	-87.561	0.050211	-0.040096	0.016764	-0.003692	0.007959	0.008331
-354.221	114.303	-148.309	-264.804	112.09	234.452	-179.811	83.317	257.051	-237.99	636.155	-334.847	86.001	600.539	-104.768	107.595	646.491	-4.858	-342.594	682.222	-343.023	-305.997	132.218	-87.579	0.050628	-0.026051	0.019218	-0.005765	0.005016	0.005373
-354.235	114.327	-148.318	-264.804	112.086	234.446	-179.831	83.329	257.074	-238.06	636.179	-334.969	85.961	600.535	-104.774	107.545	646.526	-4.891	-342.62	682.243	-343.117	-306.029	132.213	-87.599	0.031151	-0.016638	0.011814	-0.000499	-0.001571	0.001841
-354.25	114.319	-148.312	-264.802	112.068	234.442	-179.839	83.331	257.056	-238.108	636.25	-335.074	85.882	600.577	-104.829	107.511	646.553	-4.946	-342.64	682.274	-343.249	-306.035	132.24	-87.561	0.017286	-0.015555	-0.005091	-0.000211	-0.003787	-0.005511
-354.239	114.331	-148.317	-264.81	112.085	234.444	-179.838	83.333	257.059	-238.132	636.315	-335.176	85.846	600.613	-104.874	107.48	646.589	-5.015	-342.654	682.305	-343.401	-306.03	132.248	-87.557	0.001149	-0.019047	-0.00814	0.003616	-0.005973	-0.009156
-354.247	114.331	-148.322	-264.827	112.082	234.425	-179.829	83.314	257.035	-238.135	636.39	-335.302	85.781	600.634	-104.973	107.454	646.607	-5.088	-342.679	682.337	-343.607	-306.054	132.272	-87.593	0.004313	-0.024897	-0.011474	0.003784	-0.00452	-0.011465
-354.25	114.348	-148.325	-264.803	112.069	234.416	-179.822	83.326	257.048	-238.153	636.448	-335.415	85.735	600.669	-105.051	107.419	646.618	-5.175	-342.676	682.366	-343.828	-306.072	132.263	-87.589	0.006669	-0.016172	-0.003666	0.007363	-0.003018	-0.007118
-354.251	114.354	-148.323	-264.797	112.053	234.402	-179.827	83.326	257.02	-238.179	636.499	-335.618	85.615	600.68	-105.142	107.421	646.657	-5.275	-342.672	682.406	-344.122	-306.035	132.27	-87.585	0.012694	0.000826	-0.009237	0.011161	-0.006666	-0.012137
-354.25	114.363	-148.334	-264.792	112.059	234.397	-179.819	83.324	257.015	-238.184	636.562	-335.835	85.578	600.703	-105.235	107.407	646.678	-5.376	-342.711	682.487	-344.445	-306.059	132.291	-87.597	0.012011	0.026491	-0.008709	0.004576	-0.002303	-0.010147
-354.268	114.357	-148.348	-264.784	112.064	234.384	-179.786	83.327	257.023	-238.18	636.615	-336.086	85.504	600.724	-105.371	107.399	646.7	-5.485	-342.704	682.567	-344.819	-306.068	132.285	-87.593	0.010956	0.042455	-0.017877	0.002281	-0.010252	-0.004445
-354.255	114.35	-148.367	-264.759	112.052	234.393	-179.767	83.319	257.025	-238.204	636.713	-336.381	85.476	600.794	-105.478	107.394	646.713	-5.592	-342.733	682.649	-345.283	-306.084	132.277	-87.588	0.010168	0.055421	-0.012861	-0.00201	-0.00367	-0.005408
-354.266	114.327	-148.387	-264.744	112.085	234.384	-179.766	83.316	257.013	-238.259	636.814	-336.67	85.43	600.774	-105.579	107.406	646.725	-5.684	-342.774	682.766	-345.792	-306.067	132.284	-87.609	0.011176	0.054251	-0.025529	-0.003321	-0.003596	-0.009236
-354.256	114.35	-148.406	-264.734	112.07	234.388	-179.744	83.328	257.009	-238.304	636.933	-336.982	85.395	600.82	-105.677	107.409	646.75	-5.805	-342.867	682.901	-346.408	-306.061	132.302	-87.629	0.011766	0.050394	-0.021963	-0.004825	0.003081	-0.005147
-354.277	114.338	-148.418	-264.711	112.064	234.385	-179.732	83.324	256.998	-238.392	637.095	-337.336	85.399	600.844	-105.798	107.434	646.776	-5.905	-343.166	683.21	-346.939	-306.099	132.29	-87.683	0.009201	0.041519	-0.021728	-0.006964	0.010477	-0.004713
-354.294	114.328	-148.428	-264.698	112.063	234.363	-179.726	83.31	256.998	-238.514	637.303	-337.71	85.388	600.862	-105.883	107.469	646.799	-6.029	-343.255	683.35	-347.794	-306.123	132.314	-87.705	0.005346	0.045018	-0.024179	-0.004752	0.018606	-0.002746
-354.317	114.33	-148.43	-264.706	112.067	234.377	-179.732	83.282	256.992	-238.662	637.481	-338.131	85.368	600.861	-105.982	107.493	646.797	-6.138	-343.346	683.564	-348.72	-306.116	132.322	-87.731	0.008104	0.054924	-0.027749	-0.00463	0.01869	-0.005816
-354.319	114.337	-148.441	-264.682	112.05	234.361	-179.731	83.268	256.978	-238.946	637.626	-338.625	85.363	600.864	-106.066	107.542	646.803	-6.236	-343.452	683.786	-349.769	-306.129	132.349	-87.7	0.010206	0.07207	-0.028097	-0.00314	0.018744	-0.005175
-354.326	114.348	-148.472	-264.647	112.034	234.357	-179.714	83.258	256.982	-239.208	637.809	-339.137	85.331	600.875	-106.158	107.569	646.798	-6.34	-343.622	684.127	-350.82	-306.156	132.371	-87.707	0.002086	0.088527	-0.024385	-0.007353	0.018745	-0.008286
-354.337	114.333	-148.467	-264.661	112.049	234.36	-179.71	83.256	256.967	-239.474	637.987	-339.664	85.342	600.866	-106.244	107.609	646.801	-6.431	-343.753	684.43	-351.934	-306.167	132.407	-87.725	0.002762	0.097146	-0.026361	-0.007372	0.020928	-0.005437
-354.348	114.348	-148.478	-264.67	112.044	234.363	-179.702	83.262	256.972	-239.774	638.163	-340.201	85.368	600.872	-106.306	107.639	646.771	-6.525	-343.931	684.83	-353.124	-306.17	132.414	-87.732	0.004987	0.103192	-0.024639	-0.006559	0.015794	-0.00615
-354.371	114.358	-148.475	-264.66	112.089	234.371	-179.68	83.277	256.979	-240.12	638.351	-340.783	85.353	600.856	-106.387	107.681	646.755	-6.608	-344.112	685.222	-354.317	-306.196	132.435	-87.724	0.006405	0.089277	-0.029198	-0.00646	0.012131	-0.007631
-354.387	114.378	-148.519	-264.624	112.074	234.378	-179.692	83.269	256.981	-240.468	638.499	-341.379	85.33	600.863	-106.459	107.703	646.714	-6.667	-344.349	685.628	-355.548	-306.221	132.472	-87.75	0.003716	0.076891	-0.025037	-0.005862	0.012856	-0.000382
-354.397	114.379	-148.497	-264.642	112.068	234.396	-179.668	83.274	256.983	-240.863	638.704	-342.004	85.314	600.807	-106.493	107.708	646.668	-6.746	-344.539	686.036	-356.803	-306.24	132.483	-87.758	0.003468	0.064372	-0.021578	-0.005755	0.010606	-0.002534
-354.404	114.388	-148.528	-264.629	112.078	234.4	-179.683	83.244	256.995	-241.302	638.851	-342.694	85.284	600.795	-106.538	107.743	646.625	-6.774	-344.805	686.4	-358.108	-306.293	132.475	-87.807	-0.005186	0.05332	-0.026177	-0.006666	0.00693	0.005504
-354.434	114.406	-148.521	-264.638	112.077	234.388	-179.678	83.258	257.003	-241.731	638.989	-343.381	85.274	600.78	-106.573	107.742	646.575	-6.801	-345.052	686.739	-359.409	-306.324	132.511	-87.818	-0.001775	0.050812	-0.02197	-0.005883	0.001795	0.004116
-354.471	114.416	-148.541	-264.645	112.087	234.417	-179.673	83.233	257.003	-242.192	639.167	-344.167	85.246	600.721	-106.55	107.751	646.509	-6.816	-345.327	687.091	-360.768	-306.331	132.491	-87.83	0.000344	0.038809	-0.025639	-0.009537	0.004704	0.006159
-354.491	114.427	-148.526	-264.635	112.06	234.408	-179.668	83.251	257.004	-242.756	639.246	-345.025	85.237	600.68	-106.535	107.756	646.425	-6.812	-345.584	687.465	-362.201	-306.336	132.516	-87.86	-0.000145	0.029939	-0.020603	-0.009359	0.003193	0.002496
-354.499	114.418	-148.485	-264.65	112.074	234.409	-179.659	83.27	257.017	-243.327	639.358	-345.937	85.218	600.622	-106.541	107.785	646.339	-6.799	-346.142	688.056	-363.465	-306.334	132.502	-87.846	-0.002965	0.035757	-0.016417	-0.007882	0.00244	0.004671
-354.483	114.449	-148.499	-264.642	112.069	234.419	-179.673	83.258	257.007	-243.951	639.523	-346.836	85.242	600.511	-106.514	107.808	646.272	-6.769	-346.467	688.38	-365.091	-306.34	132.498	-87.8	0.00182	0.037136	-0.015612	-0.007993	0.003919	0.011846
-354.48	114.473	-148.459	-264.681	112.071	234.414	-179.705	83.238	256.997	-244.621	639.737	-347.738	85.263	600.364	-106.461	107.821	646.18	-6.735	-346.908	688.676	-366.753	-306.32	132.487	-87.79	-0.000115	0.044581	-0.014624	2e-06	0.009744	0.014864
-354.463	114.488	-148.436	-264.688	112.088	234.42	-179.704	83.247	256.992	-245.267	640.001	-348.696	85.292	600.24	-106.409	107.843	646.078	-6.7	-347.344	688.937	-368.616	-306.316	132.493	-87.733	-0.004636	0.040473	-0.01894	0.001693	0.006066	0.00691
-354.457	114.497	-148.415	-264.709	112.079	234.404	-179.715	83.249	256.995	-245.968	640.255	-349.624	85.345	600.08	-106.333	107.894	645.993	-6.677	-347.725	689.131	-370.521	-306.245	132.492	-87.678	-0.013108	0.030546	-0.025565	0.003096	0.007525	0.009119
-354.44	114.506	-148.413	-264.713	112.076	234.414	-179.724	83.252	256.993	-246.667	640.464	-350.623	85.357	600.004	-106.329	107.927	645.897	-6.647	-348.179	689.38	-372.493	-306.247	132.467	-87.714	-0.011582	0.021012	-0.03512	0.001725	0.003138	0.004072
-354.45	114.509	-148.395	-264.722	112.067	234.396	-179.744	83.267	256.987	-247.447	640.626	-351.678	85.383	599.875	-106.297	107.987	645.784	-6.622	-348.547	689.544	-374.512	-306.24	132.46	-87.683	-0.022778	0.011676	-0.046517	0.006722	-0.000483	0.005005
-354.45	114.515	-148.372	-264.741	112.054	234.392	-179.765	83.257	256.98	-248.254	640.659	-352.774	85.418	599.753	-106.274	108.042	645.649	-6.596	-348.855	689.641	-376.696	-306.208	132.475	-87.684	-0.032048	0.016151	-0.051965	0.005319	-0.000491	0.001377
-354.435	114.514	-148.38	-264.735	112.045	234.395	-179.752	83.253	257.0	-249.102	640.692	-353.93	85.453	599.696	-106.312	108.098	645.522	-6.617	-349.372	689.856	-378.637	-306.197	132.425	-87.656	-0.041961	0.008377	-0.058498	0.013979	-0.002668	0.000964
-354.449	114.528	-148.367	-264.748	112.052	234.395	-179.774	83.256	256.98	-249.988	640.692	-355.079	85.503	599.58	-106.309	108.182	645.385	-6.603	-350.036	690.125	-380.635	-306.211	132.418	-87.707	-0.043364	0.007156	-0.065416	0.012996	0.000276	0.005423
-354.448	114.527	-148.344	-264.742	112.036	234.388	-179.774	83.248	256.98	-250.895	640.657	-356.297	85.544	599.487	-106.33	108.268	645.247	-6.615	-350.664	690.312	-382.651	-306.162	132.429	-87.679	-0.050449	-0.006716	-0.069753	0.009697	0.000349	0.014896
-354.426	114.539	-148.363	-264.74	112.053	234.372	-179.762	83.259	256.981	-251.787	640.613	-357.499	85.623	599.407	-106.332	108.357	645.091	-6.617	-351.296	690.51	-384.662	-306.23	132.414	-87.68	-0.05617	-0.011619	-0.075139	0.015467	0.000368	0.010111
-354.434	114.544	-148.348	-264.715	112.043	234.4	-179.764	83.251	256.978	-252.699	640.588	-358.787	85.673	599.331	-106.348	108.471	644.952	-6.616	-351.941	690.651	-386.694	-306.206	132.432	-87.661	-0.061225	-0.003963	-0.07715	0.010897	-0.005401	0.011598
-354.421	114.538	-148.363	-264.731	112.069	234.384	-179.759	83.255	256.988	-253.601	640.517	-360.146	85.774	599.22	-106.362	108.58	644.857	-6.596	-352.385	690.585	-388.805	-306.199	132.426	-87.643	-0.071596	0.003067	-0.082743	0.009086	-0.004562	0.016769
-354.436	114.537	-148.372	-264.712	112.07	234.397	-179.739	83.25	256.975	-254.453	640.499	-361.446	85.884	599.092	-106.338	108.716	644.733	-6.614	-353.057	690.725	-390.764	-306.203	132.432	-87.665	-0.072849	0.003991	-0.085026	0.015399	-0.002251	0.017021
-354.418	114.526	-148.366	-264.687	112.088	234.405	-179.731	83.258	256.992	-255.312	640.4	-362.764	85.958	599.017	-106.352	108.84	644.611	-6.601	-353.669	690.809	-392.737	-306.182	132.439	-87.673	-0.075931	-0.002577	-0.092793	0.005778	0.00297	0.013237
-354.44	114.532	-148.391	-264.666	112.091	234.411	-179.711	83.273	257.007	-256.055	640.386	-364.031	86.047	598.913	-106.324	108.972	644.502	-6.602	-354.249	690.881	-394.688	-306.223	132.431	-87.742	-0.075877	-0.017234	-0.09305	0.002754	0.00598	0.006062
-354.426	114.542	-148.415	-264.66	112.105	234.42	-179.688	83.267	257.007	-256.785	640.307	-365.313	86.191	598.794	-106.336	109.114	644.378	-6.604	-354.793	690.921	-396.608	-306.247	132.462	-87.714	-0.073814	-0.021833	-0.098549	-0.001162	0.003164	0.006165
-354.457	114.545	-148.454	-264.647	112.105	234.409	-179.687	83.264	257.026	-257.472	640.269	-366.615	86.283	598.689	-106.283	109.276	644.231	-6.604	-355.334	690.974	-398.502	-306.258	132.455	-87.749	-0.072852	-0.019021	-0.096373	-0.005773	0.003955	0.00553
-354.46	114.549	-148.46	-264.648	112.113	234.412	-179.678	83.266	257.014	-258.155	640.173	-367.957	86.401	598.573	-106.264	109.406	644.127	-6.594	-355.798	691.012	-400.31	-306.29	132.506	-87.835	-0.075097	-0.010242	-0.097428	-0.005885	0.015622	-0.000101
-354.463	114.542	-148.467	-264.66	112.151	234.414	-179.668	83.273	257.021	-258.775	640.091	-369.238	86.479	598.525	-106.286	109.545	644.02	-6.598	-356.237	691.044	-402.117	-306.286	132.523	-87.788	-0.080105	-0.008616	-0.095706	-0.006945	0.010592	0.001598
-354.466	114.545	-148.463	-264.632	112.131	234.426	-179.669	83.26	257.009	-259.382	640.015	-370.601	86.562	598.416	-106.281	109.684	643.911	-6.569	-356.661	691.077	-403.867	-306.33	132.516	-87.796	-0.0783	-0.010701	-0.092576	-0.005835	0.017889	0.004077
-354.471	114.545	-148.472	-264.637	112.13	234.425	-179.685	83.246	257.007	-259.915	639.898	-371.902	86.633	598.316	-106.28	109.811	643.799	-6.577	-357.026	691.095	-405.565	-306.283	132.541	-87.824	-0.078969	-0.012112	-0.10042	-0.004088	0.01504	0.008078
-354.472	114.549	-148.486	-264.617	112.123	234.423	-179.688	83.261	257.023	-260.38	639.835	-373.118	86.752	598.213	-106.266	109.931	643.694	-6.564	-357.346	691.082	-407.246	-306.306	132.505	-87.812	-0.075607	-0.004884	-0.098211	-5e-05	0.01286	0.007832
-354.463	114.548	-148.471	-264.625	112.128	234.436	-179.689	83.265	257.004	-260.777	639.754	-374.269	86.854	598.11	-106.264	110.037	643.555	-6.59	-357.619	691.087	-408.9	-306.309	132.516	-87.83	-0.071952	0.002904	-0.097551	-0.002407	0.011321	0.002395
-354.449	114.547	-148.474	-264.606	112.125	234.425	-179.672	83.271	257.008	-261.065	639.719	-375.261	86.929	598.016	-106.291	110.163	643.422	-6.612	-357.815	691.041	-410.521	-306.271	132.552	-87.765	-0.070238	0.012871	-0.09057	-0.007919	0.002551	0.00634
-354.45	114.542	-148.466	-264.612	112.137	234.41	-179.664	83.277	256.995	-261.282	639.726	-376.171	86.999	597.936	-106.346	110.277	643.286	-6.626	-357.929	690.988	-412.141	-306.331	132.514	-87.814	-0.066206	0.011621	-0.098208	-0.007497	0.004647	0.005361
-354.459	114.548	-148.472	-264.601	112.143	234.399	-179.657	83.284	257.007	-261.414	639.717	-376.898	87.042	597.846	-106.325	110.393	643.166	-6.662	-358.046	690.939	-413.768	-306.298	132.514	-87.822	-0.060667	0.005315	-0.092249	-0.009231	-0.001234	0.002877
-354.455	114.569	-148.475	-264.586	112.131	234.404	-179.655	83.284	257.016	-261.567	639.7	-377.656	87.059	597.791	-106.357	110.477	643.058	-6.68	-358.074	690.891	-415.335	-306.3	132.51	-87.829	-0.064325	0.003444	-0.088216	-0.009411	-0.004196	-0.002534
-354.45	114.565	-148.458	-264.567	112.136	234.41	-179.624	83.278	257.011	-261.624	639.703	-378.362	87.111	597.712	-106.427	110.585	642.949	-6.703	-358.073	690.843	-416.881	-306.319	132.508	-87.796	-0.056668	0.010715	-0.085993	-0.010595	-0.000567	0.001474
-354.449	114.572	-148.457	-264.553	112.139	234.41	-179.626	83.29	256.996	-261.699	639.7	-379.038	87.124	597.647	-106.416	110.667	642.84	-6.734	-358.026	690.783	-418.399	-306.313	132.539	-87.793	-0.050821	0.027446	-0.085032	-0.004625	0.001612	0.010047
-354.452	114.583	-148.464	-264.564	112.161	234.396	-179.617	83.281	256.998	-261.723	639.667	-379.79	87.145	597.598	-106.483	110.771	642.722	-6.764	-357.989	690.76	-419.909	-306.271	132.526	-87.761	-0.040928	0.017215	-0.076162	-0.00123	0.002288	0.004779
-354.439	114.569	-148.427	-264.548	112.173	234.42	-179.602	83.302	257.013	-261.709	639.626	-380.477	87.17	597.533	-106.464	110.87	642.589	-6.803	-357.874	690.758	-421.383	-306.302	132.499	-87.807	-0.03877	0.011431	-0.063357	-0.005944	0.005892	0.003644
-354.443	114.568	-148.449	-264.537	112.16	234.41	-179.605	83.297	257.012	-262.191	640.471	-381.085	87.229	597.496	-106.554	110.951	642.477	-6.844	-357.753	690.727	-422.816	-306.257	132.496	-87.734	-0.040065	0.001143	-0.057394	0.00257	-0.002168	-0.002907
-354.441	114.557	-148.448	-264.52	112.154	234.417	-179.6	83.294	257.026	-262.204	640.517	-381.824	87.291	597.341	-106.577	111.069	642.369	-6.854	-357.591	690.747	-424.259	-306.259	132.507	-87.756	-0.035321	-0.007855	-0.048187	-0.004468	6.7e-05	0.001629
-354.435	114.557	-148.447	-264.539	112.171	234.399	-179.599	83.303	257.002	-262.223	640.564	-382.509	87.342	597.253	-106.555	111.13	642.24	-6.873	-357.411	690.818	-425.65	-306.284	132.488	-87.791	-0.031004	-0.011852	-0.046872	-0.000356	0.00587	-0.002254
-354.452	114.558	-148.457	-264.531	112.175	234.402	-179.612	83.273	257.013	-262.227	640.635	-383.268	87.374	597.139	-106.547	111.242	642.12	-6.871	-357.169	690.91	-427.015	-306.256	132.515	-87.746	-0.032277	-0.009843	-0.046381	0.00086	0.004405	-0.006919
-354.457	114.555	-148.463	-264.528	112.159	234.422	-179.623	83.299	257.015	-262.243	640.753	-383.993	87.463	597.042	-106.566	111.334	641.993	-6.891	-356.895	690.987	-428.345	-306.319	132.475	-87.842	-0.029111	-0.011395	-0.043651	0.002728	0.002939	-0.008645
-354.467	114.559	-148.475	-264.552	112.171	234.398	-179.615	83.28	257.01	-262.247	640.82	-384.706	87.472	596.963	-106.551	111.43	641.86	-6.882	-356.624	691.166	-429.699	-306.314	132.508	-87.827	-0.023589	-0.005665	-0.035911	-0.000683	0.008024	-0.004658
-354.486	114.568	-148.486	-264.537	112.162	234.389	-179.618	83.306	257.003	-262.243	640.946	-385.277	87.566	596.867	-106.552	111.533	641.757	-6.866	-356.411	691.326	-430.965	-306.292	132.51	-87.798	-0.014303	-0.003747	-0.036738	0.011213	0.010922	-0.003143
-354.473	114.578	-148.509	-264.561	112.144	234.393	-179.612	83.324	257.022	-262.066	640.932	-385.431	87.546	596.819	-106.528	111.622	641.63	-6.859	-356.147	691.482	-432.233	-306.345	132.507	-87.865	-0.010797	-0.00608	-0.041207	0.001543	0.010115	-0.011579
-354.471	114.557	-148.513	-264.54	112.138	234.381	-179.632	83.32	257.008	-262.082	640.916	-386.164	87.684	596.608	-106.646	111.718	641.514	-6.862	-355.932	691.668	-433.403	-306.304	132.551	-87.857	-0.022393	-0.000761	-0.04598	0.001055	-0.000114	-0.010273
-354.488	114.555	-148.536	-264.595	112.165	234.36	-179.626	83.352	256.999	-261.845	640.307	-386.476	87.673	596.648	-106.527	111.777	641.383	-6.85	-355.764	691.881	-434.513	-306.324	132.543	-87.848	-0.028078	0.010453	-0.039254	0.002663	0.004926	-0.00532
-354.479	114.543	-148.557	-264.601	112.157	234.348	-179.63	83.36	257.004	-262.211	640.911	-387.327	87.753	596.456	-106.63	111.863	641.24	-6.839	-355.586	692.15	-435.516	-306.374	132.533	-87.912	-0.021849	0.02793	-0.039779	0.005275	-0.000279	-0.010466
-354.482	114.521	-148.564	-264.609	112.138	234.336	-179.653	83.37	257.013	-262.237	640.955	-387.687	87.774	596.338	-106.604	111.908	641.104	-6.82	-355.55	692.481	-436.395	-306.37	132.505	-87.987	-0.021477	0.038222	-0.041717	-0.0025	0.002577	-0.00724
-354.477	114.514	-148.595	-264.642	112.121	234.326	-179.665	83.363	256.997	-262.334	640.981	-387.996	87.756	596.397	-106.466	111.98	640.961	-6.795	-355.47	692.789	-437.163	-306.312	132.533	-87.909	-0.017319	0.051287	-0.041392	9.8e-05	-0.001144	-0.010991
-354.489	114.494	-148.6	-264.673	112.115	234.317	-179.706	83.366	256.983	-262.469	641.011	-388.173	87.831	596.218	-106.579	112.023	640.837	-6.774	-355.465	693.177	-437.858	-306.345	132.513	-87.994	-0.014865	0.039603	-0.045076	0.00243	0.000267	-0.003888
-354.487	114.494	-148.616	-264.714	112.124	234.296	-179.723	83.361	256.982	-262.678	641.081	-388.351	87.907	596.066	-106.577	112.076	640.705	-6.72	-355.533	693.597	-438.467	-306.362	132.506	-88.03	-0.010597	0.039538	-0.046603	0.002644	-0.003433	0.001004
-354.482	114.482	-148.652	-264.72	112.104	234.287	-179.762	83.349	256.963	-262.95	641.219	-388.401	87.882	595.97	-106.554	112.107	640.563	-6.701	-355.672	694.062	-438.975	-306.404	132.519	-88.055	-0.009757	0.047577	-0.044622	6.3e-05	0.000102	0.001465
-354.503	114.488	-148.676	-264.752	112.092	234.261	-179.794	83.349	256.968	-263.313	641.319	-388.551	87.922	596.031	-106.395	112.158	640.456	-6.637	-355.861	694.506	-439.369	-306.396	132.552	-88.017	-0.009636	0.05054	-0.044083	0.001058	-0.001449	0.002802
-354.505	114.477	-148.684	-264.794	112.106	234.256	-179.802	83.333	256.964	-263.772	641.631	-388.494	87.971	595.783	-106.46	112.198	640.32	-6.605	-356.094	694.949	-439.626	-306.413	132.554	-88.084	-0.000691	0.054673	-0.047895	0.002678	-0.002967	0.008482
-354.51	114.471	-148.71	-264.821	112.113	234.241	-179.831	83.344	256.957	-264.324	641.946	-388.254	87.992	595.788	-106.291	112.26	640.178	-6.583	-356.42	695.409	-439.761	-306.403	132.561	-88.073	-0.001372	0.053176	-0.044547	0.007382	0.002009	0.006284
-354.515	114.447	-148.723	-264.824	112.09	234.228	-179.843	83.378	256.966	-264.918	642.207	-388.132	88.048	595.575	-106.395	112.35	640.041	-6.545	-356.819	695.906	-439.792	-306.463	132.565	-88.151	0.000263	0.057425	-0.044272	0.002584	-0.00319	0.004628
-354.524	114.448	-148.737	-264.824	112.088	234.221	-179.824	83.39	256.968	-265.626	642.467	-387.901	88.049	595.625	-106.275	112.424	639.872	-6.553	-357.282	696.412	-439.667	-306.446	132.57	-88.145	-0.002343	0.07192	-0.040622	0.003493	0.001854	0.00881
-354.545	114.439	-148.756	-264.831	112.094	234.206	-179.839	83.417	256.97	-266.389	642.662	-387.675	88.118	595.533	-106.303	112.568	639.738	-6.578	-357.827	696.953	-439.469	-306.441	132.584	-88.139	0.00384	0.085357	-0.042728	-0.001009	-0.001158	-0.001684
-354.529	114.449	-148.767	-264.824	112.078	234.211	-179.837	83.426	256.989	-267.206	642.956	-387.157	88.277	595.321	-106.545	112.735	639.579	-6.638	-358.456	697.485	-439.132	-306.497	132.602	-88.185	0.000438	0.092284	-0.047063	0.008152	-0.00554	-0.006081
-354.537	114.427	-148.782	-264.853	112.078	234.189	-179.836	83.447	256.98	-268.098	643.232	-386.623	88.387	595.235	-106.645	112.937	639.423	-6.767	-359.145	698.039	-438.643	-306.446	132.601	-88.193	-0.004544	0.089059	-0.045461	0.006015	0.000366	0.003681
-354.538	114.426	-148.773	-264.846	112.077	234.187	-179.841	83.453	256.986	-269.052	643.538	-386.126	88.469	595.239	-106.837	113.196	639.258	-6.945	-359.942	698.626	-438.075	-306.446	132.602	-88.155	0.000716	0.087703	-0.041617	0.004447	0.003943	-0.007547
-354.527	114.412	-148.779	-264.863	112.076	234.189	-179.854	83.471	257.005	-270.077	643.951	-385.239	88.552	595.211	-107.05	113.477	639.136	-7.123	-360.789	699.225	-437.343	-306.469	132.585	-88.211	0.002404	0.091432	-0.036465	0.006144	-0.001897	-0.005538
-354.518	114.421	-148.791	-264.86	112.055	234.162	-179.854	83.483	257.015	-271.16	644.261	-384.437	88.617	595.147	-107.218	113.802	639.021	-7.341	-361.692	699.8	-436.531	-306.438	132.572	-88.198	0.00619	0.090526	-0.037108	0.006418	-0.000525	-0.007103
-354.525	114.405	-148.782	-264.91	112.07	234.135	-179.884	83.484	256.997	-272.314	644.545	-383.544	88.767	595.066	-107.452	114.181	638.936	-7.565	-362.675	700.415	-435.568	-306.451	132.56	-88.219	0.002622	0.091666	-0.035647	0.007354	-0.004974	-0.006431
-354.5	114.408	-148.768	-264.892	112.028	234.152	-179.9	83.508	256.999	-273.51	644.923	-382.517	88.931	595.015	-107.7	114.604	638.828	-7.82	-363.693	701.008	-434.49	-306.421	132.558	-88.187	0.008572	0.094478	-0.047256	0.008363	-0.004354	-0.007957
-354.513	114.404	-148.775	-264.926	112.052	234.141	-179.901	83.485	256.994	-274.7	645.219	-381.397	89.026	594.983	-107.971	115.099	638.75	-8.145	-364.788	701.609	-433.312	-306.445	132.564	-88.198	0.004589	0.085077	-0.050303	0.006307	-0.002984	-0.003747
-354.495	114.429	-148.766	-264.944	112.065	234.151	-179.919	83.493	256.991	-275.963	645.604	-380.228	89.133	594.999	-108.212	115.662	638.671	-8.482	-365.886	702.24	-432.011	-306.407	132.564	-88.185	0.006308	0.08063	-0.048495	0.004323	0.000587	-0.001061
-354.506	114.429	-148.767	-264.929	112.057	234.127	-179.909	83.491	256.997	-277.219	645.956	-378.988	89.212	594.984	-108.49	116.279	638.589	-8.904	-367.16	702.903	-430.497	-306.387	132.567	-88.17	0.003413	0.072597	-0.04766	-0.000602	0.002724	0.002984
-354.501	114.457	-148.751	-264.915	112.077	234.14	-179.899	83.502	256.989	-278.566	646.348	-377.653	89.237	595.082	-108.693	117.035	638.479	-9.368	-368.37	703.546	-429.04	-306.392	132.573	-88.16	0.006877	0.065057	-0.04625	-0.003865	0.002625	-0.000887
-354.478	114.448	-148.741	-264.876	112.094	234.155	-179.871	83.534	257.023	-279.932	646.807	-376.091	89.166	595.182	-109.016	118.061	638.34	-9.954	-369.608	704.162	-427.459	-306.385	132.542	-88.164	0.006513	0.057474	-0.048723	-0.006594	0.005475	0.003922
-354.471	114.464	-148.723	-264.822	112.111	234.167	-179.832	83.527	257.024	-281.322	647.152	-374.662	89.28	595.261	-109.368	118.937	638.222	-10.534	-370.906	704.85	-425.821	-306.354	132.515	-88.144	0.013253	0.057104	-0.047941	-0.010472	0.015558	-0.003666
-354.47	114.454	-148.707	-264.791	112.132	234.19	-179.786	83.521	257.028	-282.736	647.649	-373.201	89.303	595.407	-109.659	119.93	638.096	-11.146	-372.254	705.514	-424.078	-306.366	132.506	-88.078	0.025651	0.069151	-0.041877	-0.018013	0.025607	-0.00915
-354.453	114.454	-148.693	-264.704	112.146	234.224	-179.73	83.529	257.054	-284.133	648.044	-371.586	89.312	595.559	-109.992	120.921	638.0	-11.766	-373.627	706.168	-422.252	-306.303	132.511	-88.092	0.034002	0.07624	-0.031015	-0.03	0.021905	-0.009013
-354.441	114.444	-148.685	-264.681	112.156	234.237	-179.691	83.548	257.094	-285.562	648.548	-369.995	89.468	595.629	-110.407	121.961	637.907	-12.435	-375.033	706.849	-420.344	-306.284	132.507	-88.077	0.043846	0.09415	-0.020396	-0.042237	0.032048	0.003373
-354.418	114.455	-148.665	-264.649	112.184	234.266	-179.657	83.53	257.095	-287.05	648.951	-368.521	89.623	595.684	-110.893	122.953	637.652	-13.42	-376.491	707.562	-418.343	-306.301	132.494	-88.071	0.046831	0.099069	-0.002423	-0.051154	0.049132	0.005132
-354.418	114.456	-148.662	-264.601	112.203	234.269	-179.654	83.518	257.092	-288.492	649.449	-366.967	89.754	595.813	-111.227	124.144	637.595	-14.16	-377.969	708.294	-416.22	-306.337	132.475	-88.097	0.050509	0.087027	0.001353	-0.049905	0.048393	-0.014405
-354.419	114.474	-148.64	-264.577	112.202	234.304	-179.628	83.521	257.096	-289.904	649.931	-365.466	90.004	595.895	-111.599	125.403	637.563	-14.922	-379.467	709.006	-414.014	-306.281	132.495	-88.04	0.052238	0.077797	0.003082	-0.038961	0.015232	0.012052
-354.414	114.478	-148.62	-264.562	112.22	234.3	-179.596	83.511	257.105	-291.347	650.418	-363.859	90.148	596.092	-112.051	126.672	637.457	-15.736	-380.998	709.756	-411.503	-306.294	132.494	-88.002	0.060258	0.04883	0.005077	-0.038657	-0.004788	-0.001242
-354.436	114.482	-148.608	-264.516	112.231	234.311	-179.584	83.502	257.088	-292.831	650.87	-362.232	90.283	596.248	-112.466	128.079	637.338	-16.552	-382.514	710.482	-409.179	-306.281	132.499	-87.995	0.06115	0.029568	0.007521	-0.040703	0.006145	0.01345
-354.431	114.489	-148.586	-264.478	112.246	234.317	-179.555	83.496	257.115	-294.271	651.35	-360.609	90.545	596.335	-112.776	129.499	637.198	-17.307	-384.096	711.266	-406.769	-306.272	132.476	-87.99	0.058115	0.036818	0.01311	-0.036386	0.023566	0.006483
-354.423	114.499	-148.575	-264.459	112.246	234.336	-179.533	83.471	257.091	-296.265	652.49	-359.769	90.534	596.657	-113.034	130.972	637.061	-18.099	-385.657	711.982	-404.242	-306.267	132.457	-87.901	0.065723	0.066704	0.022771	-0.039206	0.028674	0.019807
-354.424	114.504	-148.541	-264.391	112.257	234.344	-179.482	83.507	257.115	-297.7	652.907	-358.0	90.815	596.715	-113.399	132.433	636.875	-18.897	-387.208	712.739	-401.685	-306.258	132.451	-87.936	0.065782	0.069842	0.025416	-0.050944	0.029409	0.007514
-354.423	114.511	-148.53	-264.396	112.296	234.351	-179.47	83.515	257.102	-299.105	653.4	-355.972	91.105	596.789	-113.644	133.963	636.713	-19.594	-388.804	713.554	-399.018	-306.255	132.411	-87.929	0.069681	0.064796	0.027001	-0.068496	0.034788	0.013939
-354.428	114.538	-148.506	-264.379	112.315	234.345	-179.458	83.518	257.105	-300.513	653.849	-353.999	91.535	596.796	-113.863	135.536	636.589	-20.284	-390.479	714.371	-396.148	-306.242	132.401	-87.924	0.077094	0.033978	0.024096	-0.070363	0.051917	0.025886
-354.423	114.536	-148.491	-264.359	112.307	234.344	-179.422	83.511	257.126	-301.945	654.275	-351.977	92.111	596.752	-114.048	137.116	636.445	-20.919	-392.022	715.171	-393.339	-306.263	132.384	-87.892	0.075437	0.013398	0.016785	-0.063686	0.057734	0.01739
-354.45	114.546	-148.5	-264.333	112.314	234.332	-179.411	83.527	257.121	-303.316	654.64	-349.812	92.713	596.71	-114.278	138.752	636.348	-21.54	-393.558	715.943	-390.45	-306.231	132.398	-87.875	0.06972	0.01568	0.024357	-0.056259	0.042186	0.007848
-354.449	114.558	-148.479	-264.331	112.312	234.332	-179.409	83.54	257.112	-304.654	655.094	-347.627	93.427	596.594	-114.438	140.386	636.216	-22.154	-395.079	716.712	-387.454	-306.235	132.433	-87.852	0.068096	0.039163	0.019873	-0.044817	0.034558	0.007348
-354.465	114.568	-148.464	-264.327	112.318	234.333	-179.386	83.546	257.115	-305.982	655.508	-345.473	94.163	596.489	-114.588	142.06	636.062	-22.748	-396.569	717.508	-384.437	-306.261	132.416	-87.878	0.067228	0.060757	0.016688	-0.041884	0.028266	-0.000568
-354.46	114.57	-148.455	-264.349	112.356	234.311	-179.404	83.529	257.094	-307.266	655.937	-343.107	95.021	596.359	-114.715	143.696	635.926	-23.269	-397.99	718.245	-381.332	-306.264	132.425	-87.872	0.072877	0.074421	0.020884	-0.045003	0.022055	0.005714
-354.496	114.569	-148.466	-264.329	112.318	234.321	-179.403	83.512	257.101	-308.248	655.815	-340.462	95.821	596.264	-114.945	145.369	635.798	-23.805	-399.443	719.004	-378.108	-306.276	132.413	-87.878	0.063011	0.061421	0.026117	-0.059529	0.008643	0.009286
-354.511	114.571	-148.445	-264.306	112.302	234.335	-179.4	83.52	257.092	-309.738	656.716	-338.086	96.819	596.124	-115.11	147.003	635.673	-24.342	-400.839	719.766	-374.843	-306.316	132.39	-87.914	0.063648	0.045779	0.022985	-0.0663	0.015164	0.024272
-354.521	114.581	-148.446	-264.341	112.318	234.326	-179.405	83.514	257.088	-311.019	657.251	-336.014	97.916	596.019	-115.317	148.678	635.531	-24.887	-402.131	720.476	-371.523	-306.319	132.424	-87.934	0.063825	0.041702	0.023424	-0.054465	0.026173	0.025651
-354.55	114.579	-148.445	-264.337	112.344	234.323	-179.4	83.505	257.078	-312.248	657.574	-333.778	98.903	595.919	-115.562	150.311	635.447	-25.454	-403.415	721.168	-368.142	-306.354	132.435	-87.926	0.064167	0.043412	0.017917	-0.040481	0.031289	0.032198
-354.559	114.593	-148.463	-264.323	112.329	234.321	-179.389	83.508	257.078	-313.329	657.926	-331.316	100.076	595.816	-115.91	151.975	635.288	-26.024	-404.579	721.808	-364.882	-306.361	132.458	-87.947	0.065785	0.045358	0.030422	-0.027627	0.026659	0.030226
-354.557	114.609	-148.466	-264.309	112.338	234.319	-179.384	83.503	257.086	-314.571	658.302	-328.966	100.252	596.098	-116.178	153.613	635.144	-26.645	-405.787	722.479	-361.324	-306.348	132.481	-87.92	0.063759	0.039866	0.026981	-0.021906	0.015889	0.02974
-354.574	114.604	-148.45	-264.277	112.348	234.338	-179.363	83.523	257.087	-315.592	658.703	-326.14	102.38	595.563	-116.777	155.204	634.948	-27.323	-406.911	723.073	-357.719	-306.37	132.474	-87.94	0.063103	0.026296	0.020695	-0.007378	0.001936	0.03114
-354.56	114.615	-148.456	-264.26	112.362	234.335	-179.337	83.535	257.1	-316.545	659.092	-323.199	102.564	595.744	-117.145	156.785	634.782	-27.964	-407.981	723.612	-354.043	-306.353	132.488	-87.915	0.061814	0.02406	0.027125	-0.007669	-0.008528	0.052493
-354.571	114.631	-148.464	-264.223	112.376	234.339	-179.307	83.538	257.103	-317.426	659.442	-320.194	103.663	595.55	-117.643	158.338	634.603	-28.614	-409.014	724.162	-350.313	-306.377	132.498	-87.905	0.055776	0.038899	0.024353	-0.012389	-0.023585	0.059134
-354.578	114.618	-148.47	-264.205	112.407	234.344	-179.28	83.54	257.096	-318.264	659.809	-317.185	105.708	595.058	-118.408	159.917	634.476	-29.234	-410.011	724.709	-346.531	-306.359	132.454	-87.921	0.052664	0.053913	0.016277	-0.023209	-0.037195	0.064478
-354.566	114.61	-148.463	-264.185	112.407	234.324	-179.264	83.568	257.124	-319.075	660.108	-314.041	107.524	594.663	-119.113	161.399	634.304	-29.889	-410.915	725.199	-342.613	-306.339	132.469	-87.895	0.057953	0.055879	0.019899	-0.019499	-0.045526	0.060739
-354.547	114.594	-148.481	-264.193	112.409	234.34	-179.262	83.54	257.105	-320.024	660.598	-311.016	109.152	594.326	-119.839	162.933	634.151	-30.554	-412.096	725.976	-338.856	-306.342	132.43	-87.932	0.070588	0.056909	0.025085	-0.02092	-0.036094	0.050818
-354.546	114.585	-148.495	-264.17	112.426	234.337	-179.254	83.538	257.117	-320.79	660.852	-307.914	111.178	594.023	-121.135	164.431	633.921	-31.158	-412.899	726.388	-334.811	-306.331	132.414	-87.938	0.070819	0.052761	0.020849	-0.012559	-0.016212	0.049016
-354.53	114.566	-148.478	-264.162	112.412	234.358	-179.264	83.546	257.122	-321.495	661.122	-304.796	112.313	593.904	-121.401	165.907	633.663	-31.774	-413.607	726.803	-330.637	-306.279	132.426	-87.934	0.08251	0.047564	0.030552	-0.004797	-0.00585	0.031511
-354.53	114.559	-148.475	-264.918	113.353	234.77	-179.259	83.542	257.118	-322.14	661.46	-301.629	113.403	593.765	-121.694	167.411	633.358	-32.483	-414.371	727.221	-326.386	-306.333	132.394	-87.913	0.075243	0.045255	0.029919	0.009022	-0.004323	0.014045
-354.514	114.565	-148.481	-264.902	113.362	234.763	-179.25	83.523	257.11	-322.669	661.826	-298.271	114.495	593.608	-122.053	168.934	633.036	-33.086	-414.986	727.594	-322.005	-306.296	132.393	-87.945	0.075536	0.065145	0.029115	0.006037	-0.004303	0.001234
-354.535	114.554	-148.485	-264.918	113.362	234.789	-179.258	83.527	257.118	-323.085	662.151	-294.828	115.594	593.335	-122.487	170.407	632.669	-33.827	-415.548	728.011	-317.59	-306.278	132.372	-87.921	0.077553	0.067461	0.029151	0.003074	-0.008648	-0.012325
-354.527	114.555	-148.501	-264.905	113.374	234.783	-179.249	83.534	257.105	-323.393	662.502	-291.445	116.72	593.105	-122.974	171.889	632.301	-34.531	-416.008	728.433	-313.128	-306.323	132.385	-87.943	0.070701	0.064882	0.029073	-0.003975	0.003849	-0.006567
-354.524	114.562	-148.481	-264.712	113.11	234.71	-179.234	83.527	257.126	-323.566	662.805	-287.89	117.794	592.83	-123.463	173.367	631.942	-35.216	-416.361	728.802	-308.64	-306.307	132.392	-87.96	0.07527	0.052644	0.033499	-0.011516	0.021344	-0.003853
-354.511	114.563	-148.478	-264.607	113.018	234.643	-179.257	83.513	257.096	-323.666	663.152	-284.433	118.799	592.532	-123.959	174.788	631.529	-35.936	-416.608	729.164	-304.118	-306.544	132.336	-88.417	0.076231	0.047659	0.026775	-0.007523	0.037012	-0.012466
-354.515	114.557	-148.462	-264.483	112.912	234.597	-179.22	83.515	257.101	-323.657	663.521	-280.956	119.828	592.238	-124.565	176.179	631.134	-36.688	-416.758	729.574	-299.668	-306.555	132.329	-88.398	0.084991	0.05147	0.027005	0.000367	0.042902	-0.021608
-354.473	114.557	-148.483	-264.385	112.826	234.549	-179.222	83.526	257.122	-323.563	663.888	-277.519	120.799	591.942	-125.093	177.577	630.745	-37.335	-416.788	729.917	-295.177	-306.543	132.307	-88.424	0.085489	0.063981	0.023272	0.006133	0.037669	-0.027797
-354.486	114.55	-148.484	-264.306	112.752	234.512	-179.206	83.518	257.129	-323.385	664.185	-274.119	121.769	591.639	-125.634	178.91	630.368	-37.991	-416.798	730.315	-290.624	-306.561	132.31	-88.387	0.092869	0.084678	0.026036	0.017532	0.025117	-0.025106
-354.462	114.549	-148.459	-264.243	112.699	234.482	-179.171	83.536	257.14	-323.105	664.543	-270.82	122.678	591.384	-126.151	180.172	630.015	-38.744	-416.542	730.681	-286.002	-306.503	132.291	-88.376	0.089908	0.092499	0.032557	0.014353	0.009645	-0.018527
-354.471	114.537	-148.448	-264.174	112.642	234.463	-179.161	83.52	257.139	-322.731	664.882	-267.54	123.603	591.105	-126.757	181.489	629.691	-39.451	-416.335	731.155	-281.516	-306.525	132.296	-88.358	0.087488	0.083554	0.044474	0.016493	-0.005838	-0.013527
-354.471	114.546	-148.448	-264.136	112.596	234.439	-179.152	83.512	257.133	-322.287	665.216	-264.276	124.44	590.842	-127.3	182.751	629.351	-40.188	-415.994	731.582	-277.095	-306.531	132.248	-88.383	0.078796	0.079004	0.045471	0.014974	-0.002899	0.00092
-354.468	114.543	-148.432	-264.083	112.56	234.43	-179.136	83.516	257.145	-321.764	665.531	-261.111	125.201	590.659	-127.825	183.981	628.998	-40.94	-415.561	732.055	-272.739	-306.494	132.251	-88.345	0.072366	0.080052	0.076191	0.017575	0.013166	0.009095
-354.471	114.554	-148.428	-264.026	112.513	234.411	-179.131	83.499	257.136	-321.137	665.897	-257.994	125.948	590.456	-128.417	185.1	628.598	-41.817	-415.089	732.526	-268.426	-306.521	132.261	-88.351	0.073359	0.09133	0.082199	0.022108	0.025492	0.013975
-354.475	114.553	-148.388	-264.026	112.545	234.401	-179.118	83.515	257.128	-320.465	666.256	-255.08	126.576	590.265	-128.978	186.317	628.257	-42.666	-414.46	733.008	-264.095	-306.471	132.247	-88.306	0.080791	0.108179	0.082285	0.026588	0.035331	0.010533
-354.463	114.57	-148.378	-264.009	112.538	234.407	-179.095	83.501	257.134	-319.719	666.603	-252.173	127.151	590.149	-129.469	187.524	627.929	-43.522	-413.781	733.512	-259.854	-306.467	132.242	-88.293	0.083452	0.109418	0.080054	0.013854	0.038317	0.010157
-354.46	114.573	-148.353	-263.976	112.556	234.419	-179.068	83.517	257.134	-318.919	666.967	-249.388	127.677	590.034	-129.975	188.708	627.617	-44.405	-412.977	734.023	-255.614	-306.468	132.227	-88.254	0.080945	0.105939	0.087199	0.007371	0.024963	0.004071
-354.457	114.592	-148.325	-263.945	112.55	234.428	-179.06	83.503	257.153	-318.069	667.309	-246.688	128.169	589.903	-130.478	189.831	627.324	-45.314	-412.143	734.589	-251.435	-306.463	132.205	-88.272	0.078664	0.100024	0.079955	-0.006949	0.017215	0.000489
-354.451	114.591	-148.301	-263.935	112.58	234.441	-179.043	83.5	257.15	-317.14	667.683	-243.981	128.656	589.846	-130.891	190.948	627.041	-46.134	-411.124	735.099	-247.317	-306.458	132.199	-88.263	0.07955	0.097386	0.082446	0.003729	0.025384	-0.008568
-354.444	114.6	-148.274	-263.905	112.586	234.459	-179.027	83.511	257.148	-316.115	668.032	-241.249	129.158	589.74	-131.295	192.016	626.783	-46.958	-410.104	735.667	-243.267	-306.44	132.202	-88.217	0.072917	0.093466	0.07812	0.013037	0.03124	-0.014255
-354.434	114.617	-148.254	-263.894	112.601	234.468	-179.001	83.486	257.148	-315.147	668.499	-238.66	129.696	589.637	-131.777	193.09	626.594	-47.751	-408.958	736.147	-239.309	-306.428	132.178	-88.193	0.074032	0.082192	0.059842	0.018999	0.031021	-0.026617
-354.434	114.632	-148.227	-263.878	112.622	234.491	-178.969	83.5	257.19	-314.132	668.93	-236.248	130.278	589.484	-132.246	193.994	626.324	-48.496	-407.628	736.693	-235.202	-306.427	132.165	-88.174	0.076821	0.067812	0.049085	0.017613	0.027707	-0.033394
-354.422	114.643	-148.216	-263.833	112.625	234.519	-178.958	83.489	257.181	-312.965	669.28	-233.899	130.902	589.37	-132.691	194.914	626.358	-49.586	-406.363	737.217	-231.348	-306.416	132.17	-88.165	0.085144	0.058505	0.051557	0.019945	0.020542	-0.041528
-354.417	114.667	-148.173	-263.83	112.643	234.513	-178.943	83.498	257.183	-311.775	669.609	-231.798	131.566	589.252	-133.146	195.845	626.26	-50.2	-404.956	737.722	-227.566	-306.416	132.17	-88.148	0.091946	0.054134	0.043992	0.009034	0.002425	-0.045691
-354.42	114.677	-148.154	-263.81	112.651	234.534	-178.955	83.493	257.202	-310.538	669.982	-229.67	132.341	589.15	-133.665	196.719	626.143	-50.799	-403.524	738.214	-223.869	-306.406	132.161	-88.096	0.09245	0.041214	0.040202	0.003035	-0.003966	-0.045625
-354.423	114.694	-148.116	-263.802	112.66	234.537	-178.944	83.482	257.193	-309.264	670.324	-227.713	133.045	589.007	-134.165	197.595	626.064	-51.423	-402.001	738.725	-220.209	-306.401	132.18	-88.116	0.084962	0.010923	0.039545	0.001442	-0.000172	-0.047878
-354.411	114.722	-148.095	-263.791	112.684	234.551	-178.928	83.479	257.195	-308.008	670.594	-225.796	133.832	588.895	-134.691	198.478	625.996	-51.997	-400.441	739.221	-216.692	-306.398	132.163	-88.054	0.075064	-0.014315	0.033092	-0.000364	0.013097	-0.046593
-354.413	114.749	-148.062	-263.773	112.702	234.57	-178.914	83.473	257.214	-306.77	670.835	-224.131	134.511	588.851	-135.156	199.395	625.879	-52.614	-398.756	739.692	-213.181	-306.386	132.166	-88.04	0.073357	-0.050541	0.021734	0.003729	0.02474	-0.053693
-354.433	114.781	-148.048	-263.763	112.709	234.595	-178.912	83.49	257.23	-305.457	671.088	-222.368	135.271	588.76	-135.693	200.326	625.783	-53.258	-397.076	740.133	-209.815	-306.396	132.187	-88.013	0.073639	-0.07047	0.010095	-0.000656	0.026798	-0.048374
-354.431	114.799	-148.019	-263.75	112.736	234.593	-178.881	83.473	257.215	-304.065	671.326	-220.542	135.944	588.715	-136.226	201.22	625.696	-53.885	-395.317	740.575	-206.487	-306.385	132.185	-87.993	0.08495	-0.090247	-0.006034	-0.002329	0.028763	-0.043459
-354.447	114.826	-148.011	-263.73	112.754	234.596	-178.879	83.456	257.214	-302.557	671.588	-218.688	136.69	588.673	-136.744	202.124	625.608	-54.551	-393.528	741.034	-203.289	-306.405	132.207	-87.999	0.085374	-0.09975	-0.016891	-0.004862	0.018997	-0.040485
-354.449	114.84	-147.976	-263.688	112.751	234.631	-178.876	83.477	257.224	-300.869	671.95	-216.611	137.38	588.676	-137.3	203.01	625.526	-55.213	-391.696	741.461	-200.209	-306.422	132.186	-88.003	0.079276	-0.100464	-0.012186	-0.006147	0.008518	-0.038039
-354.453	114.854	-147.976	-263.697	112.788	234.612	-178.837	83.499	257.251	-299.419	672.162	-215.063	138.083	588.645	-137.91	203.89	625.451	-55.892	-389.794	741.82	-197.209	-306.396	132.186	-87.964	0.072877	-0.082708	-0.004886	0.005419	0.00679	-0.034402
-354.462	114.865	-147.972	-263.646	112.784	234.626	-178.826	83.494	257.249	-298.035	672.424	-213.74	138.738	588.645	-138.445	204.741	625.39	-56.57	-387.881	742.206	-194.268	-306.371	132.203	-87.893	0.070365	-0.062949	-0.001903	0.006265	-0.012459	-0.041167
-354.453	114.878	-147.947	-263.65	112.795	234.63	-178.808	83.492	257.259	-296.627	672.628	-212.489	139.436	588.643	-139.064	205.576	625.343	-57.27	-385.909	742.538	-191.475	-306.324	132.195	-87.845	0.067378	-0.075271	0.01457	0.00866	-0.017637	-0.032703
-354.448	114.882	-147.927	-263.612	112.797	234.636	-178.804	83.496	257.263	-295.17	672.825	-211.272	140.041	588.664	-139.658	206.408	625.324	-57.975	-383.936	742.842	-188.753	-306.307	132.223	-87.769	0.058025	-0.106731	0.013155	0.0149	-0.033623	-0.035234
-354.441	114.891	-147.934	-263.61	112.819	234.633	-178.778	83.503	257.273	-293.575	672.97	-210.079	140.639	588.69	-140.253	207.202	625.263	-58.722	-381.916	743.118	-186.189	-306.262	132.196	-87.698	0.061196	-0.143344	0.011104	0.016013	-0.04143	-0.038983
-354.423	114.883	-147.917	-263.592	112.814	234.627	-178.781	83.502	257.269	-292.017	673.111	-208.984	141.25	588.732	-140.919	208.046	625.226	-59.477	-379.897	743.372	-183.748	-306.232	132.199	-87.664	0.072106	-0.160444	-0.000905	0.011652	-0.04168	-0.029562
-354.427	114.873	-147.919	-263.572	112.827	234.636	-178.751	83.498	257.246	-290.336	673.258	-207.78	141.846	588.785	-141.564	208.779	625.184	-60.231	-377.855	743.627	-181.367	-306.22	132.2	-87.63	0.081035	-0.156683	-0.002016	0.008921	-0.039573	-0.027146
-354.424	114.886	-147.916	-263.565	112.826	234.615	-178.752	83.495	257.247	-289.249	673.465	-207.199	142.364	588.839	-142.163	209.57	625.154	-61.021	-375.752	743.798	-179.064	-306.197	132.18	-87.576	0.076287	-0.136524	-0.008218	0.001113	-0.024221	-0.024692
-354.432	114.877	-147.905	-263.544	112.819	234.63	-178.738	83.485	257.256	-287.423	673.433	-206.309	142.905	588.871	-142.856	210.289	625.124	-61.824	-373.653	743.939	-176.88	-306.174	132.228	-87.515	0.064126	-0.122854	-0.019099	-0.003795	-0.00812	-0.020361
-354.44	114.906	-147.926	-263.541	112.834	234.623	-178.729	83.507	257.272	-285.694	673.477	-205.459	143.429	588.963	-143.548	210.986	625.085	-62.643	-371.314	743.902	-174.755	-306.171	132.235	-87.49	0.060912	-0.09571	-0.008389	-0.005053	0.004249	-0.016099
-354.455	114.91	-147.912	-263.525	112.845	234.621	-178.715	83.503	257.251	-283.923	673.559	-204.744	143.883	588.952	-144.213	211.663	625.073	-63.454	-369.163	743.938	-172.722	-306.148	132.225	-87.467	0.061573	-0.07248	-0.009916	-0.008574	0.017988	-0.010503
-354.459	114.92	-147.909	-263.498	112.86	234.627	-178.703	83.497	257.247	-282.043	673.629	-204.108	144.393	588.982	-144.917	212.29	625.058	-64.311	-366.845	743.954	-170.649	-306.173	132.227	-87.514	0.058454	-0.064008	-0.005397	-0.010531	0.016296	-0.012004
-354.447	114.934	-147.912	-263.457	112.871	234.624	-178.701	83.491	257.255	-280.192	673.672	-203.668	144.867	589.054	-145.622	212.917	625.06	-65.111	-364.666	743.902	-168.736	-306.16	132.246	-87.499	0.046411	-0.075263	6e-05	-0.011126	0.018829	-0.014721
-354.444	114.94	-147.915	-263.456	112.871	234.63	-178.672	83.525	257.266	-278.372	673.638	-203.398	145.34	589.142	-146.368	213.514	625.09	-65.901	-362.398	743.734	-166.999	-306.157	132.248	-87.463	0.040642	-0.077389	-0.0032	-0.009578	0.015435	-0.020817
-354.441	114.957	-147.91	-263.429	112.894	234.636	-178.663	83.515	257.26	-276.987	673.802	-203.246	145.725	589.165	-147.086	213.877	625.029	-66.789	-360.062	743.535	-165.314	-306.339	132.176	-87.898	0.039502	-0.067205	-0.008803	-0.009869	0.012043	-0.020136
-354.434	114.938	-147.9	-263.415	112.883	234.646	-178.643	83.52	257.277	-275.136	673.678	-203.068	146.115	589.224	-147.836	214.368	625.041	-67.59	-357.721	743.04	-163.89	-306.334	132.181	-87.895	0.036795	-0.055299	-0.005857	-0.00776	0.012946	-0.033776
-354.437	114.954	-147.894	-263.41	112.892	234.66	-178.651	83.516	257.291	-273.115	673.428	-203.08	146.484	589.324	-148.529	214.847	625.06	-68.37	-355.358	742.599	-162.548	-306.37	132.173	-87.862	0.036072	-0.043875	0.001283	-0.008398	0.012537	-0.032864
-354.437	114.963	-147.88	-263.37	112.901	234.653	-178.637	83.542	257.29	-271.171	673.253	-202.986	146.77	589.416	-149.202	215.282	625.123	-69.128	-353.002	742.119	-161.312	-306.349	132.186	-87.853	0.032846	-0.045947	0.00544	-0.008305	0.010714	-0.039743
-354.43	114.962	-147.873	-263.38	112.902	234.669	-178.622	83.525	257.292	-269.197	672.983	-203.113	147.016	589.528	-149.874	215.685	625.195	-69.897	-350.67	741.533	-160.26	-306.347	132.177	-87.856	0.025082	-0.051973	0.01159	-0.004263	0.014171	-0.039163
-354.443	114.969	-147.857	-263.364	112.929	234.664	-178.613	83.545	257.302	-267.244	672.667	-203.47	147.236	589.639	-150.499	216.004	625.256	-70.667	-348.315	740.871	-159.417	-306.344	132.172	-87.82	0.027009	-0.050733	0.011806	-0.005619	0.017765	-0.036277
-354.447	114.978	-147.871	-263.36	112.965	234.671	-178.606	83.552	257.3	-265.36	672.318	-203.907	147.422	589.772	-151.102	216.336	625.348	-71.398	-346.029	740.164	-158.709	-306.321	132.193	-87.818	0.024973	-0.033431	0.010336	-0.007225	0.022158	-0.033005
-354.441	115.001	-147.856	-263.332	112.943	234.67	-178.573	83.566	257.308	-263.425	672.029	-204.465	147.551	589.917	-151.719	216.646	625.443	-72.091	-343.746	739.398	-158.096	-306.357	132.199	-87.814	0.026748	-0.009217	0.008159	-0.004389	0.017076	-0.041448
-354.449	115.009	-147.831	-263.303	112.977	234.673	-178.545	83.584	257.321	-261.541	671.654	-205.099	147.66	590.06	-152.27	216.913	625.538	-72.77	-341.505	738.573	-157.647	-306.331	132.199	-87.776	0.023886	-0.001395	0.007694	-0.004256	0.017909	-0.038614
-354.438	115.047	-147.825	-263.98	113.882	235.102	-178.631	83.601	257.345	-259.531	671.282	-205.597	147.777	590.226	-152.804	217.152	625.627	-73.387	-339.329	737.752	-157.333	-306.333	132.223	-87.74	0.020786	-0.009338	0.011173	0.00103	0.018802	-0.046854
-354.434	115.047	-147.826	-263.791	113.717	235.013	-178.595	83.613	257.342	-257.509	670.897	-206.191	147.836	590.381	-153.334	217.353	625.753	-74.002	-337.167	736.895	-157.166	-306.349	132.221	-87.755	0.012672	-0.020471	0.013283	-0.000885	0.0127	-0.041034
-354.446	115.076	-147.805	-263.646	113.615	234.965	-178.565	83.631	257.351	-255.487	670.525	-206.731	147.867	590.539	-153.831	217.529	625.865	-74.567	-334.978	736.069	-157.123	-306.351	132.225	-87.74	0.0113	-0.031404	0.003887	-0.00148	0.007539	-0.039924
-354.465	115.086	-147.806	-263.538	113.487	234.9	-178.564	83.647	257.355	-253.456	670.128	-207.242	147.918	590.691	-154.274	217.676	625.978	-75.118	-332.925	735.182	-157.257	-306.322	132.232	-87.736	0.011938	-0.044451	-0.002672	0.001432	0.009838	-0.043431
-354.458	115.108	-147.794	-263.419	113.391	234.846	-178.527	83.635	257.37	-251.461	669.773	-207.791	147.928	590.85	-154.698	217.81	626.088	-75.628	-330.852	734.378	-157.444	-306.355	132.253	-87.754	0.006687	-0.05604	-0.003763	0.00187	0.00946	-0.044506
-354.46	115.109	-147.78	-263.358	113.324	234.813	-178.526	83.644	257.364	-249.481	669.409	-208.294	147.938	590.974	-155.134	217.942	626.212	-76.109	-328.889	733.534	-157.749	-306.36	132.238	-87.715	-0.007899	-0.062244	-0.00974	0.009338	0.00781	-0.043627
-354.46	115.12	-147.774	-263.271	113.264	234.796	-178.506	83.655	257.374	-247.586	669.035	-208.99	147.96	591.123	-155.526	218.059	626.362	-76.479	-327.027	732.779	-158.104	-306.327	132.234	-87.73	-0.022331	-0.053795	-0.014789	0.006648	0.00844	-0.050652
-354.454	115.111	-147.766	-263.227	113.223	234.765	-178.509	83.645	257.354	-245.85	668.591	-210.586	148.01	591.294	-155.917	218.159	626.526	-76.863	-325.25	732.06	-158.529	-306.331	132.243	-87.722	-0.030972	-0.047074	-0.006906	0.00671	0.001925	-0.059304
-354.444	115.096	-147.768	-263.186	113.163	234.759	-178.502	83.648	257.372	-244.448	668.249	-213.214	148.078	591.461	-156.236	218.242	626.645	-77.201	-323.525	731.407	-159.022	-306.333	132.244	-87.674	-0.044504	-0.038985	-0.009274	0.006365	-0.000788	-0.058237
-354.446	115.119	-147.771	-263.122	113.117	234.732	-178.49	83.649	257.368	-242.908	667.975	-214.43	148.162	591.606	-156.573	218.276	626.768	-77.471	-321.886	730.871	-159.567	-306.336	132.245	-87.712	-0.04697	-0.025612	-0.007882	0.001499	-0.009879	-0.057698
-354.444	115.125	-147.76	-263.104	113.081	234.714	-178.486	83.636	257.368	-241.462	667.782	-215.63	148.216	591.766	-156.812	218.291	626.888	-77.691	-320.304	730.392	-160.188	-306.351	132.249	-87.69	-0.04818	-0.020104	-0.009901	-0.001901	-0.013042	-0.064042
-354.453	115.139	-147.762	-263.081	113.087	234.748	-178.46	83.649	257.387	-240.108	667.665	-216.877	148.308	591.909	-157.038	218.324	627.034	-77.85	-318.87	729.956	-160.871	-306.333	132.259	-87.69	-0.05465	-0.022077	-0.011108	0.00066	-0.003628	-0.053315
-354.442	115.136	-147.76	-263.076	113.096	234.727	-178.472	83.649	257.409	-238.785	667.545	-218.164	148.397	592.061	-157.274	218.368	627.194	-77.986	-317.504	729.588	-161.579	-306.339	132.265	-87.699	-0.05262	-0.034359	-0.012942	0.009179	-0.002161	-0.052313
-354.448	115.144	-147.759	-263.057	113.08	234.768	-178.47	83.642	257.412	-237.605	667.518	-219.431	148.478	592.195	-157.459	218.363	627.314	-78.077	-316.268	729.235	-162.368	-306.358	132.276	-87.692	-0.05077	-0.051225	-0.01499	0.01472	-0.010096	-0.052524
-354.459	115.155	-147.766	-263.072	113.098	234.762	-178.461	83.649	257.424	-236.571	667.562	-220.763	148.563	592.307	-157.575	218.373	627.432	-78.126	-315.242	728.995	-163.25	-306.351	132.276	-87.701	-0.048071	-0.056374	-0.021177	0.021535	-0.012132	-0.049567
-354.444	115.152	-147.775	-263.104	113.089	234.753	-178.48	83.647	257.417	-235.649	667.615	-222.139	148.638	592.448	-157.614	218.357	627.555	-78.134	-314.174	728.784	-164.039	-306.35	132.267	-87.687	-0.055667	-0.05086	-0.014173	0.0116	-0.014873	-0.048314
-354.438	115.135	-147.773	-263.096	113.092	234.771	-178.502	83.638	257.418	-234.921	667.697	-223.296	148.726	592.546	-157.686	218.356	627.683	-78.096	-313.318	728.721	-164.911	-306.378	132.275	-87.705	-0.062336	-0.025783	-0.009879	0.014701	-0.012471	-0.046648
-354.423	115.143	-147.801	-263.113	113.069	234.763	-178.499	83.65	257.429	-234.247	667.816	-224.551	148.809	592.665	-157.677	218.343	627.819	-78.008	-312.608	728.726	-165.813	-306.335	132.282	-87.711	-0.066203	-0.004985	-0.001262	0.018239	-0.021585	-0.036154
-354.426	115.138	-147.811	-263.141	113.059	234.752	-178.521	83.631	257.427	-233.725	668.009	-225.908	148.9	592.775	-157.699	218.285	627.936	-77.917	-311.947	728.799	-166.816	-306.354	132.283	-87.692	-0.067735	0.020968	0.008238	0.012541	-0.021224	-0.035373
-354.415	115.131	-147.807	-263.168	113.06	234.758	-178.546	83.642	257.419	-233.349	668.234	-227.271	148.969	592.88	-157.664	218.25	628.071	-77.771	-311.388	728.97	-167.847	-306.336	132.29	-87.719	-0.058808	0.025372	0.010363	0.014773	-0.022962	-0.033626
-354.415	115.125	-147.807	-263.204	113.052	234.748	-178.572	83.627	257.416	-233.259	668.29	-228.34	149.026	592.998	-157.606	218.224	628.205	-77.606	-310.941	729.163	-168.934	-306.332	132.319	-87.693	-0.052639	0.007347	0.017277	0.019864	-0.018115	-0.031058
-354.431	115.111	-147.835	-263.206	113.027	234.726	-178.588	83.636	257.425	-232.954	668.566	-229.641	149.136	593.098	-157.547	218.16	628.315	-77.457	-310.611	729.443	-170.055	-306.348	132.306	-87.721	-0.048073	-0.013273	0.014851	0.014661	-0.028471	-0.025775
-354.418	115.123	-147.847	-263.233	113.03	234.735	-178.6	83.637	257.421	-232.653	668.857	-230.882	149.204	593.208	-157.494	217.901	628.367	-77.316	-310.328	729.744	-171.231	-306.381	132.299	-87.762	-0.038624	-0.019974	0.018043	0.0212	-0.032279	-0.025241
-354.437	115.115	-147.848	-263.272	113.018	234.736	-178.634	83.624	257.421	-232.474	669.242	-232.159	149.294	593.282	-157.402	217.863	628.493	-77.113	-310.167	730.071	-172.438	-306.361	132.304	-87.768	-0.029577	-0.017462	0.032576	0.019698	-0.040446	-0.023434
-354.422	115.108	-147.893	-263.302	113.007	234.726	-178.66	83.614	257.397	-232.338	669.64	-233.357	149.334	593.359	-157.275	217.797	628.591	-76.897	-310.036	730.478	-173.664	-306.362	132.327	-87.74	-0.022857	-0.005974	0.030105	0.014483	-0.036938	-0.018239
-354.438	115.112	-147.884	-263.338	112.972	234.725	-178.669	83.616	257.421	-232.261	669.988	-234.546	149.401	593.438	-157.158	217.731	628.688	-76.647	-310.024	730.878	-174.964	-306.344	132.339	-87.695	-0.020186	0.008702	0.02235	0.021033	-0.034881	-0.017197
-354.437	115.093	-147.892	-263.348	112.956	234.712	-178.692	83.605	257.417	-232.205	670.336	-235.812	149.502	593.559	-157.111	217.675	628.771	-76.405	-310.035	731.339	-176.246	-306.333	132.352	-87.668	-0.028297	0.024627	0.012144	0.023862	-0.032049	-0.012722
-354.444	115.077	-147.911	-263.39	112.956	234.7	-178.728	83.614	257.394	-232.17	670.717	-237.013	149.67	593.931	-157.307	217.593	628.842	-76.159	-310.12	731.785	-177.556	-306.399	132.351	-87.798	-0.048073	0.02613	0.010442	0.0232	-0.028474	-0.013534
-354.432	115.097	-147.927	-263.409	112.922	234.709	-178.767	83.591	257.398	-232.194	671.058	-238.212	149.75	594.324	-157.517	217.535	628.928	-75.889	-310.27	732.232	-178.904	-306.368	132.366	-87.757	-0.055978	0.035793	-0.003098	0.026838	-0.027787	-0.011386
-354.449	115.077	-147.919	-263.451	112.908	234.709	-178.782	83.601	257.387	-232.328	671.474	-239.534	149.782	594.58	-157.538	217.418	628.985	-75.659	-310.407	732.726	-180.288	-306.35	132.368	-87.708	-0.06211	0.043344	-0.01961	0.023443	-0.026416	-0.017502
-354.447	115.082	-147.929	-263.497	112.925	234.694	-178.796	83.609	257.397	-232.428	671.829	-240.809	149.623	593.875	-156.862	217.318	629.038	-75.4	-310.633	733.21	-181.689	-306.352	132.382	-87.66	-0.0598	0.052129	-0.02441	0.017854	-0.023606	-0.022277
-354.463	115.081	-147.949	-263.521	112.897	234.691	-178.804	83.613	257.414	-232.616	672.264	-242.1	149.564	593.885	-156.682	217.198	629.099	-75.182	-310.871	733.723	-183.134	-306.32	132.419	-87.632	-0.044697	0.06208	-0.032462	0.012637	-0.023671	-0.011894
-354.461	115.08	-147.934	-263.55	112.876	234.69	-178.826	83.62	257.392	-232.819	672.692	-243.61	149.505	593.917	-156.502	217.089	629.16	-74.965	-311.189	734.182	-184.599	-306.344	132.427	-87.616	-0.035475	0.064704	-0.035026	0.006429	-0.020909	-0.018318
-354.479	115.086	-147.96	-263.599	112.861	234.682	-178.853	83.596	257.38	-232.988	673.159	-244.846	149.385	593.929	-156.331	216.935	629.21	-74.764	-311.511	734.648	-186.129	-306.338	132.443	-87.562	-0.021422	0.054864	-0.028364	0.013144	-0.017412	-0.016536
-354.497	115.081	-147.957	-263.624	112.857	234.679	-178.879	83.597	257.375	-233.275	673.596	-246.395	149.284	593.944	-156.206	216.795	629.267	-74.536	-311.759	735.157	-187.413	-306.366	132.456	-87.569	-0.01627	0.03076	-0.025047	0.013206	-0.017511	-0.010622
-354.516	115.08	-147.967	-263.654	112.844	234.671	-178.882	83.616	257.375	-233.489	674.069	-247.81	149.177	593.945	-156.052	216.644	629.312	-74.341	-312.229	735.619	-188.987	-306.326	132.479	-87.455	-0.008622	0.013699	-0.005686	0.017082	-0.017614	-0.011884
-354.526	115.066	-147.996	-263.686	112.824	234.654	-178.897	83.627	257.378	-233.854	674.634	-249.298	149.096	593.951	-155.948	216.479	629.339	-74.16	-312.726	736.073	-190.604	-306.288	132.497	-87.446	0.014851	0.014388	0.009287	0.01496	-0.007524	-0.006066
-354.535	115.069	-148.012	-263.711	112.816	234.649	-178.887	83.633	257.377	-234.155	675.065	-250.734	148.96	593.962	-155.851	216.32	629.39	-73.995	-313.203	736.576	-192.159	-306.27	132.532	-87.372	0.036359	0.030204	0.013208	0.009368	-0.003996	-0.006199
-354.534	115.068	-147.997	-263.736	112.799	234.633	-178.892	83.647	257.374	-234.563	675.55	-252.194	148.794	593.995	-155.746	216.094	629.432	-73.855	-313.718	737.125	-193.769	-306.299	132.529	-87.395	0.047139	0.041167	0.025821	0.010303	0.001705	-0.004765
-354.545	115.07	-148.006	-263.771	112.773	234.634	-178.92	83.632	257.365	-234.942	676.019	-253.512	148.649	594.049	-155.575	215.872	629.469	-73.69	-314.251	737.69	-195.38	-306.313	132.529	-87.429	0.049381	0.044809	0.031237	0.012013	0.000874	-0.005483
-354.556	115.08	-148.017	-263.802	112.754	234.628	-178.927	83.655	257.379	-235.405	676.524	-254.98	148.46	594.059	-155.484	215.626	629.485	-73.542	-314.74	738.303	-196.941	-306.317	132.507	-87.474	0.053268	0.040058	0.034015	0.012986	0.002227	-0.006197
-354.563	115.084	-148.019	-263.8	112.765	234.633	-178.949	83.668	257.361	-235.86	677.039	-256.336	148.056	594.199	-154.887	215.373	629.505	-73.43	-315.291	738.965	-198.508	-306.318	132.556	-87.425	0.04876	0.028638	0.044938	0.014858	0.009387	-0.013477
-354.577	115.092	-148.025	-263.797	112.75	234.619	-178.943	83.666	257.373	-236.286	677.577	-257.646	147.849	594.183	-154.883	215.118	629.524	-73.315	-315.858	739.605	-200.073	-306.332	132.539	-87.442	0.048805	0.029729	0.032658	0.010054	0.010014	-0.015818
-354.578	115.1	-148.02	-263.83	112.742	234.614	-178.953	83.669	257.369	-236.742	678.155	-259.056	147.661	594.226	-154.707	214.869	629.526	-73.193	-316.415	740.243	-201.583	-306.33	132.552	-87.417	0.041014	0.020117	0.033531	0.001782	0.010596	-0.024738
-354.58	115.097	-148.028	-264.544	113.643	235.034	-178.958	83.689	257.384	-237.14	678.842	-260.262	147.417	594.228	-154.617	214.634	629.533	-73.082	-317.005	740.87	-203.055	-306.337	132.568	-87.392	0.014719	0.01092	0.0313	0.006333	0.014859	-0.023843
-354.57	115.09	-148.023	-264.407	113.444	234.968	-178.991	83.672	257.37	-237.573	679.447	-261.645	147.202	594.218	-154.677	214.358	629.533	-72.94	-317.593	741.545	-204.556	-306.331	132.531	-87.422	-0.002361	-0.001204	0.027667	0.001992	0.01989	-0.017347
-354.587	115.079	-148.053	-264.298	113.317	234.9	-178.978	83.67	257.374	-237.987	680.055	-262.8	146.979	594.226	-154.595	214.071	629.522	-72.831	-318.131	742.245	-205.963	-306.363	132.544	-87.46	-0.023738	-0.005993	0.026844	-0.006613	0.016163	-0.014552
-354.588	115.073	-148.061	-264.216	113.195	234.836	-178.989	83.671	257.384	-238.418	680.686	-264.067	146.727	594.243	-154.544	213.786	629.508	-72.731	-318.64	742.964	-207.399	-306.345	132.558	-87.455	-0.034143	-0.00683	0.038566	-0.000494	0.021891	-0.020011
-354.579	115.07	-148.069	-264.134	113.083	234.766	-179.004	83.685	257.371	-238.86	681.23	-265.182	146.496	594.203	-154.602	213.455	629.49	-72.648	-319.106	743.787	-208.789	-306.335	132.556	-87.448	-0.037165	-0.008963	0.046161	-0.005685	0.016048	-0.01113
-354.575	115.07	-148.062	-264.598	113.651	235.04	-178.996	83.668	257.355	-239.293	681.738	-266.331	146.344	594.202	-154.623	213.151	629.484	-72.553	-319.549	744.636	-210.204	-306.334	132.539	-87.474	-0.039435	-0.013007	0.048128	-0.005515	0.021788	-0.012966
-354.57	115.064	-148.063	-264.607	113.632	235.015	-179.014	83.657	257.373	-239.706	682.285	-267.344	146.136	594.183	-154.65	212.865	629.493	-72.452	-319.919	745.462	-211.498	-306.337	132.52	-87.475	-0.046055	-0.01513	0.045071	0.001936	0.018817	-0.015972
-354.559	115.063	-148.065	-264.616	113.614	235.018	-179.014	83.657	257.372	-240.094	682.857	-268.373	145.902	594.172	-154.666	212.532	629.464	-72.368	-320.323	746.295	-212.82	-306.324	132.561	-87.457	-0.054216	-0.017159	0.047068	-0.000221	0.022443	-0.014798
-354.548	115.071	-148.069	-264.619	113.643	235.022	-179.02	83.675	257.37	-240.407	683.417	-269.214	145.604	594.154	-154.69	212.196	629.463	-72.275	-320.725	747.065	-214.072	-306.313	132.553	-87.433	-0.063862	-0.016004	0.051098	-0.000877	0.016615	-0.016372
-354.55	115.06	-148.086	-264.623	113.621	235.01	-179.02	83.696	257.371	-240.717	684.045	-270.101	145.329	594.114	-154.753	211.844	629.419	-72.227	-321.142	747.792	-215.304	-306.32	132.559	-87.434	-0.063428	-0.014767	0.05875	0.001209	0.020284	-0.012074
-354.535	115.064	-148.068	-264.618	113.632	234.991	-179.017	83.701	257.385	-240.967	684.657	-270.877	145.063	594.096	-154.828	211.529	629.435	-72.169	-321.526	748.5	-216.442	-306.319	132.557	-87.416	-0.065095	-0.009218	0.055435	-0.006787	0.018842	-0.012311
-354.556	115.058	-148.077	-264.448	113.411	234.934	-179.05	83.689	257.381	-241.28	685.148	-271.797	144.781	594.073	-154.911	211.179	629.399	-72.119	-321.894	749.175	-217.601	-306.344	132.583	-87.448	-0.053898	-0.012396	0.050659	-0.0031	0.015935	-0.014385
-354.554	115.067	-148.08	-264.349	113.259	234.873	-179.032	83.684	257.375	-241.499	685.65	-272.389	144.534	594.107	-154.986	210.826	629.352	-72.096	-322.222	749.89	-218.696	-306.327	132.595	-87.369	-0.055098	-0.020905	0.051306	-0.008184	0.019576	-0.01522
-354.569	115.067	-148.097	-264.267	113.149	234.822	-179.054	83.694	257.379	-241.74	686.043	-273.071	144.217	594.133	-154.985	210.416	629.323	-72.078	-322.519	750.514	-219.785	-306.346	132.585	-87.453	-0.038931	-0.021098	0.049915	-0.00311	0.02395	-0.015059
-354.581	115.073	-148.093	-264.209	113.044	234.763	-179.045	83.673	257.375	-241.939	686.409	-273.875	143.931	594.06	-155.039	210.021	629.27	-72.058	-322.841	751.149	-220.893	-306.352	132.604	-87.425	-0.039313	-0.030632	0.044944	0.001855	0.018165	-0.0112
-354.583	115.1	-148.092	-264.146	112.95	234.724	-179.056	83.705	257.385	-242.027	686.567	-274.578	143.387	593.681	-155.147	209.618	629.189	-72.048	-323.116	751.722	-221.911	-306.384	132.614	-87.424	-0.017987	-0.020199	0.047332	0.004702	0.021807	-0.010253
-354.604	115.095	-148.087	-264.095	112.889	234.693	-179.082	83.664	257.38	-242.177	686.555	-274.71	143.076	593.762	-154.79	209.198	629.109	-72.044	-323.422	752.335	-222.981	-306.348	132.636	-87.4	-0.007769	-0.020505	0.046923	0.005992	0.018182	-0.00564
-354.607	115.117	-148.091	-264.074	112.804	234.624	-179.073	83.699	257.374	-242.361	687.091	-274.032	142.701	593.686	-154.803	208.829	629.017	-72.068	-323.681	752.882	-224.054	-306.398	132.67	-87.417	0.003694	-0.023604	0.049537	0.004627	0.013016	-0.010462
-354.615	115.146	-148.091	-264.042	112.765	234.608	-179.063	83.691	257.388	-242.411	687.449	-274.602	142.332	593.66	-154.912	208.422	628.877	-72.072	-323.839	753.504	-225.145	-306.423	132.687	-87.383	0.010447	-0.030171	0.055893	0.000965	0.014396	-0.01031
-354.631	115.175	-148.09	-263.978	112.702	234.578	-179.072	83.685	257.381	-242.333	687.864	-275.139	141.952	593.567	-154.98	207.955	628.707	-72.112	-323.958	754.085	-226.25	-306.465	132.684	-87.453	0.025504	-0.035424	0.058825	-0.008565	0.012856	-0.007447
-354.662	115.193	-148.09	-263.939	112.66	234.574	-179.082	83.689	257.362	-242.053	688.254	-275.65	141.542	593.403	-155.011	207.509	628.543	-72.12	-324.077	754.684	-227.383	-306.429	132.733	-87.394	0.029019	-0.037396	0.061733	-0.013492	0.012699	-0.0125
-354.678	115.208	-148.078	-263.926	112.648	234.556	-179.069	83.655	257.358	-241.763	688.605	-276.783	141.205	593.194	-155.158	207.02	628.29	-72.119	-324.129	755.248	-228.498	-306.476	132.707	-87.387	0.03255	-0.038505	0.055269	-0.010522	0.012551	-0.012366
-354.685	115.238	-148.055	-263.911	112.67	234.573	-179.056	83.636	257.354	-241.552	689.139	-278.24	140.81	592.992	-155.282	206.526	628.049	-72.148	-324.131	755.849	-229.62	-306.515	132.739	-87.451	0.031595	-0.041997	0.060417	-0.00614	0.014596	-0.010085
-354.693	115.251	-148.023	-263.89	112.692	234.578	-179.033	83.634	257.345	-241.397	689.763	-280.252	140.538	592.814	-155.667	205.979	627.75	-72.119	-324.32	756.545	-231.037	-306.484	132.768	-87.379	0.035115	-0.04975	0.060555	0.000638	0.020198	-0.01501
-354.715	115.297	-147.999	-263.834	112.665	234.584	-179.008	83.605	257.334	-241.05	690.295	-280.977	140.743	592.872	-155.838	205.394	627.465	-72.036	-324.273	757.128	-232.224	-306.517	132.749	-87.361	0.037522	-0.044206	0.061988	-5.2e-05	0.020694	-0.012079
-354.701	115.323	-147.974	-263.808	112.732	234.608	-178.953	83.593	257.343	-240.701	690.898	-281.7	140.417	592.683	-155.833	204.776	627.142	-71.946	-324.198	757.792	-233.344	-306.503	132.757	-87.339	0.038544	-0.043764	0.060562	0.000777	0.021146	-0.011247
-354.7	115.339	-147.929	-263.748	112.752	234.65	-178.904	83.589	257.358	-240.358	691.429	-282.618	139.462	592.183	-155.085	204.06	626.77	-71.814	-324.106	758.314	-234.578	-306.491	132.762	-87.31	0.030652	-0.034632	0.053883	-0.000536	0.015751	-0.011865
-354.697	115.343	-147.903	-263.666	112.794	234.701	-178.862	83.593	257.354	-240.037	691.921	-283.513	138.936	591.894	-155.231	203.336	626.453	-71.708	-324.001	758.808	-235.911	-306.453	132.736	-87.245	0.026904	-0.03388	0.042219	-0.000446	0.016167	-0.009621
-354.661	115.361	-147.845	-263.596	112.847	234.721	-178.808	83.594	257.38	-239.702	692.358	-284.428	138.307	591.619	-155.291	202.547	626.106	-71.522	-323.899	759.235	-237.179	-306.412	132.733	-87.19	0.020785	-0.045526	0.034898	-0.003296	0.018759	-0.005347
-354.657	115.372	-147.846	-263.553	112.879	234.753	-178.779	83.601	257.392	-239.376	692.792	-285.511	137.727	591.4	-155.406	201.738	625.792	-71.397	-323.826	759.576	-238.534	-306.395	132.716	-87.213	0.014393	-0.052725	0.028755	0.000538	0.02133	-0.006014
-354.624	115.373	-147.811	-263.514	112.895	234.785	-178.743	83.601	257.417	-239.071	693.186	-286.592	136.943	591.156	-155.386	200.918	625.461	-71.25	-323.783	759.872	-239.963	-306.384	132.67	-87.159	0.015548	-0.034738	0.013508	0.001482	0.021708	-0.007456
-354.621	115.355	-147.795	-263.483	112.93	234.816	-178.706	83.587	257.418	-238.752	693.545	-287.688	136.26	590.943	-155.407	200.022	625.133	-71.087	-323.742	760.108	-241.341	-306.366	132.637	-87.201	0.021586	-0.017567	0.00756	0.007483	0.022091	-0.007992
-354.609	115.352	-147.801	-263.456	112.946	234.832	-178.692	83.599	257.432	-238.457	693.889	-288.931	135.507	590.328	-156.588	199.174	624.834	-70.97	-323.729	760.299	-242.782	-306.343	132.64	-87.143	0.020813	-0.019358	-0.002804	0.016431	0.027535	-0.009875
-354.596	115.337	-147.791	-263.452	112.954	234.823	-178.709	83.599	257.454	-238.183	694.122	-290.094	134.576	590.102	-156.241	198.303	624.522	-70.822	-323.749	760.422	-244.193	-306.347	132.612	-87.152	0.00934	-0.021915	-0.019957	0.016558	0.029348	-0.008983
-354.586	115.322	-147.801	-263.481	112.942	234.818	-178.717	83.594	257.446	-237.898	694.38	-291.347	133.733	590.05	-155.877	197.442	624.256	-70.78	-323.784	760.621	-245.488	-306.31	132.602	-87.162	0.001763	-0.02826	-0.032844	0.023941	0.020263	-0.008489
-354.593	115.313	-147.836	-263.528	112.951	234.802	-178.74	83.605	257.443	-237.644	694.644	-292.582	133.173	590.066	-155.907	196.573	623.957	-70.695	-323.768	760.664	-246.756	-306.328	132.615	-87.215	-0.008852	-0.038055	-0.040843	0.021954	0.023498	-0.011146
-354.592	115.298	-147.87	-263.566	112.901	234.797	-178.783	83.608	257.426	-237.345	694.851	-293.833	132.626	590.032	-156.187	195.771	623.737	-70.631	-323.727	760.703	-247.981	-306.331	132.625	-87.205	-0.008799	-0.03349	-0.053399	0.030851	0.019433	-0.012041
-354.605	115.274	-147.923	-263.633	112.882	234.776	-178.842	83.619	257.407	-237.076	695.074	-294.95	132.018	589.952	-156.439	194.97	623.521	-70.581	-323.695	760.681	-249.16	-306.31	132.653	-87.203	-0.012258	-0.035281	-0.069703	0.031873	0.017498	-0.016814
-354.606	115.245	-147.974	-263.719	112.794	234.721	-178.916	83.606	257.385	-236.804	695.32	-296.199	131.442	589.888	-156.685	194.167	623.314	-70.625	-323.668	760.63	-250.315	-306.357	132.62	-87.313	-0.019977	-0.044397	-0.06727	0.027084	0.014833	-0.02176
-354.645	115.217	-148.041	-263.825	112.743	234.668	-178.979	83.614	257.374	-236.558	695.498	-297.315	131.043	589.922	-156.815	193.496	623.156	-70.66	-323.746	760.436	-252.358	-306.402	132.63	-87.374	-0.023508	-0.042281	-0.054116	0.034841	0.009224	-0.031625
-354.655	115.174	-148.092	-263.943	112.694	234.634	-179.095	83.618	257.341	-236.292	695.664	-298.46	130.541	589.913	-157.179	192.766	622.982	-70.738	-323.751	760.315	-253.576	-306.411	132.645	-87.411	-0.026126	-0.049368	-0.046766	0.027197	0.005731	-0.033356
-354.676	115.129	-148.147	-264.027	112.624	234.586	-179.17	83.605	257.326	-236.03	695.774	-299.457	130.021	590.0	-157.477	192.094	622.862	-70.845	-323.728	760.181	-254.706	-306.433	132.681	-87.472	-0.015683	-0.056375	-0.029921	0.022739	0.001324	-0.040985
-354.711	115.108	-148.255	-264.15	112.583	234.53	-179.26	83.629	257.309	-235.787	695.882	-300.503	129.589	590.061	-157.834	191.422	622.723	-71.013	-323.706	760.032	-255.734	-306.501	132.719	-87.561	-0.005571	-0.06026	-0.015394	0.016256	0.001102	-0.049599
-354.71	115.072	-148.314	-264.208	112.522	234.493	-179.336	83.646	257.29	-235.541	695.923	-301.389	129.028	590.124	-158.016	190.813	622.65	-71.148	-323.702	759.833	-256.799	-306.555	132.755	-87.61	0.006731	-0.076708	-0.013361	0.010391	0.00152	-0.050373
-354.751	115.046	-148.395	-264.309	112.461	234.46	-179.418	83.647	257.297	-235.271	695.891	-302.335	128.517	590.177	-158.243	190.183	622.575	-71.245	-323.677	759.601	-257.759	-306.633	132.798	-87.706	0.023038	-0.082767	-0.017639	0.004366	0.006248	-0.04255
-354.798	115.021	-148.448	-264.4	112.415	234.429	-179.505	83.652	257.264	-235.027	695.864	-303.147	127.884	590.275	-158.354	189.639	622.513	-71.398	-323.651	759.325	-258.638	-306.703	132.84	-87.763	0.029229	-0.081592	-0.027713	-0.005784	0.009374	-0.0414
-354.816	115.01	-148.507	-264.491	112.387	234.394	-179.557	83.668	257.282	-234.752	695.814	-303.895	127.338	590.34	-158.593	189.075	622.513	-71.553	-323.613	759.002	-259.431	-306.754	132.875	-87.827	0.028314	-0.07519	-0.031207	-0.008057	0.009486	-0.03411
-354.864	114.986	-148.573	-264.528	112.312	234.379	-179.626	83.674	257.263	-234.494	695.754	-304.639	126.728	590.407	-158.653	188.622	622.525	-71.696	-323.615	758.653	-260.194	-306.783	132.914	-87.855	0.028367	-0.045052	-0.033923	-0.012635	0.010957	-0.021624
-354.897	114.987	-148.608	-264.59	112.305	234.357	-179.657	83.689	257.267	-234.275	695.595	-305.222	126.276	590.519	-158.86	188.167	622.582	-71.85	-323.57	758.243	-260.837	-306.825	132.968	-87.875	0.025896	0.008833	-0.030459	-0.018565	0.011618	-0.013369
-354.948	114.962	-148.646	-264.646	112.293	234.337	-179.699	83.707	257.282	-234.008	695.424	-305.773	125.861	590.618	-158.988	187.68	622.557	-72.199	-323.551	757.832	-261.471	-306.886	132.983	-87.976	0.029783	0.050975	-0.031591	-0.021546	0.0101	-0.007836
-354.992	114.962	-148.688	-264.677	112.268	234.328	-179.727	83.704	257.274	-233.825	695.219	-306.423	125.515	590.745	-159.171	187.368	622.652	-72.363	-323.542	757.363	-262.023	-306.95	133.06	-87.952	0.032657	0.088695	-0.022532	-0.023836	0.007162	-0.002877
-355.014	114.978	-148.732	-264.723	112.259	234.319	-179.746	83.738	257.289	-233.648	694.933	-306.851	125.277	590.836	-159.372	187.131	622.768	-72.506	-323.524	756.852	-262.498	-306.975	133.08	-87.955	0.031661	0.091151	-0.01088	-0.032233	0.009474	0.009311
-355.053	114.988	-148.753	-264.721	112.251	234.319	-179.767	83.731	257.28	-233.474	694.588	-307.233	125.043	590.94	-159.535	186.958	622.884	-72.66	-323.5	756.283	-262.906	-307.006	133.13	-87.98	0.021781	0.066675	-0.007079	-0.033931	0.011856	0.01106
-355.086	114.997	-148.747	-264.726	112.248	234.322	-179.781	83.733	257.276	-233.332	694.15	-307.616	124.839	590.988	-159.698	186.826	623.009	-72.804	-323.513	755.6	-263.294	-307.042	133.119	-87.994	0.017993	0.045508	-0.006499	-0.04241	0.016595	0.016508
-355.11	115.006	-148.723	-264.748	112.269	234.321	-179.77	83.743	257.275	-233.241	693.675	-307.977	124.543	590.944	-159.683	186.789	623.147	-72.908	-323.524	754.905	-263.631	-307.051	133.129	-87.993	0.033743	0.022257	-0.005652	-0.035599	0.023634	0.017437
-355.109	115.018	-148.732	-264.727	112.246	234.315	-179.769	83.732	257.277	-233.191	693.041	-308.121	124.305	590.915	-159.468	186.832	623.314	-73.034	-323.568	754.115	-263.875	-307.07	133.158	-88.006	0.047872	0.013189	0.002833	-0.032529	0.02059	0.01852
-355.11	115.038	-148.713	-264.731	112.255	234.325	-179.738	83.74	257.27	-233.223	692.368	-308.282	124.228	590.955	-159.453	186.954	623.487	-73.146	-323.592	753.25	-264.076	-307.065	133.14	-87.992	0.048783	0.021412	0.00641	-0.027858	0.018279	0.011163
-355.096	115.037	-148.689	-264.673	112.257	234.334	-179.711	83.743	257.281	-233.305	691.594	-308.456	124.288	591.051	-159.49	187.123	623.675	-73.256	-323.667	752.332	-264.207	-307.045	133.154	-87.965	0.047164	0.032722	0.005386	-0.02569	0.011732	0.012652
-355.065	115.04	-148.639	-264.656	112.273	234.324	-179.689	83.748	257.291	-233.436	690.726	-308.483	124.177	591.009	-159.303	187.306	623.856	-73.355	-323.789	751.353	-264.286	-307.048	133.126	-87.94	0.041635	0.053684	0.013552	-0.025531	0.009631	0.004029
-355.049	115.04	-148.611	-264.614	112.282	234.347	-179.665	83.737	257.308	-233.664	689.797	-308.539	123.738	590.451	-159.055	187.511	624.063	-73.445	-323.931	750.277	-264.269	-307.024	133.121	-87.89	0.036405	0.059824	0.002915	-0.029362	0.00625	0.0049
-355.022	115.06	-148.57	-264.588	112.301	234.348	-179.624	83.744	257.3	-233.942	688.82	-308.692	125.06	591.627	-159.227	187.772	624.268	-73.51	-324.161	749.137	-264.231	-306.97	133.104	-87.853	0.035199	0.064723	0.016207	-0.023351	0.009533	0.017612
-354.994	115.063	-148.531	-264.509	112.29	234.361	-179.575	83.726	257.297	-234.243	687.718	-308.658	125.291	591.718	-159.241	188.04	624.491	-73.596	-324.477	747.969	-264.194	-306.902	133.063	-87.812	0.032977	0.045661	0.021685	-0.030938	-0.005345	0.020578
-354.972	115.071	-148.505	-264.501	112.304	234.35	-179.537	83.736	257.281	-234.606	686.426	-308.275	125.67	591.575	-160.504	188.333	624.721	-73.68	-324.796	746.724	-264.074	-306.888	133.016	-87.801	0.039964	0.043261	0.01827	-0.042952	-0.015797	0.024195
-354.958	115.071	-148.472	-264.451	112.305	234.385	-179.51	83.721	257.294	-235.186	685.131	-307.752	126.082	592.069	-159.534	188.639	624.948	-73.766	-325.232	745.464	-263.965	-306.824	133.015	-87.742	0.048449	0.040401	0.019846	-0.046406	-0.023909	0.034293
-354.922	115.068	-148.429	-264.404	112.338	234.375	-179.494	83.693	257.28	-235.828	684.543	-308.309	125.879	591.665	-159.069	188.976	625.165	-73.895	-325.784	744.15	-263.875	-306.849	132.955	-87.763	0.048376	0.041293	0.01694	-0.034794	-0.023874	0.052517
-354.921	115.078	-148.433	-264.363	112.361	234.363	-179.43	83.683	257.289	-236.326	683.436	-308.232	125.737	590.383	-158.963	189.289	625.366	-74.03	-326.343	742.932	-263.829	-306.782	132.962	-87.707	0.044533	0.067281	0.010279	-0.028729	-0.026641	0.058174
-354.889	115.098	-148.402	-264.317	112.376	234.376	-179.414	83.643	257.258	-236.91	682.364	-308.373	126.919	592.83	-160.337	189.615	625.579	-74.178	-326.946	741.657	-263.823	-306.74	132.945	-87.705	0.042978	0.093332	-0.00269	-0.026419	-0.0292	0.067105
-354.868	115.113	-148.389	-264.287	112.415	234.387	-179.363	83.669	257.284	-237.434	681.152	-308.093	127.104	592.886	-160.428	189.954	625.789	-74.356	-327.639	740.303	-263.88	-306.747	132.942	-87.688	0.038702	0.100803	-0.000781	-0.030277	-0.02666	0.063879
-354.849	115.114	-148.381	-264.228	112.431	234.396	-179.304	83.669	257.294	-238.052	680.196	-307.985	127.201	592.895	-160.498	190.285	626.001	-74.524	-328.394	739.02	-264.016	-306.746	132.918	-87.685	0.030243	0.081144	0.005825	-0.02409	-0.024779	0.068566
-354.852	115.114	-148.366	-264.179	112.465	234.41	-179.279	83.652	257.278	-238.572	679.225	-307.809	127.316	592.937	-160.605	190.593	626.17	-74.744	-329.226	737.788	-264.169	-306.685	132.936	-87.647	0.022681	0.062862	0.008805	-0.019083	-0.018523	0.064905
-354.857	115.127	-148.347	-264.135	112.491	234.435	-179.239	83.64	257.295	-239.173	678.37	-307.811	127.513	593.058	-160.656	190.912	626.353	-74.943	-330.026	736.667	-264.344	-306.732	132.91	-87.69	0.023114	0.041018	0.010318	-0.016126	-0.017423	0.058853
-354.837	115.142	-148.35	-264.085	112.503	234.442	-179.186	83.631	257.289	-239.624	677.517	-307.587	127.655	593.153	-160.778	191.234	626.534	-75.149	-330.885	735.619	-264.627	-306.719	132.883	-87.654	0.028223	0.032456	0.006497	-0.016067	-0.014177	0.054729
-354.814	115.143	-148.344	-264.039	112.541	234.445	-179.141	83.656	257.302	-240.112	676.369	-306.929	127.893	593.255	-161.003	191.563	626.745	-75.353	-331.758	734.724	-265.042	-306.694	132.891	-87.668	0.03585	0.041525	0.003134	-0.01954	-0.017497	0.047538
-354.811	115.142	-148.342	-263.987	112.544	234.447	-179.11	83.637	257.292	-240.776	675.877	-307.102	128.125	593.391	-161.277	191.835	626.914	-75.583	-332.613	733.897	-265.394	-306.669	132.872	-87.692	0.032583	0.049916	-0.003924	-0.018455	-0.020862	0.034534
-354.789	115.135	-148.304	-263.96	112.602	234.481	-179.06	83.631	257.309	-241.416	675.255	-307.219	128.35	593.523	-161.406	192.126	627.107	-75.803	-333.546	733.207	-265.892	-306.673	132.855	-87.651	0.030414	0.071499	-0.010119	-0.014685	-0.017617	0.03088
-354.771	115.123	-148.312	-263.896	112.593	234.475	-179.022	83.625	257.311	-241.939	674.794	-308.168	128.564	593.705	-161.577	192.425	627.305	-76.052	-334.515	732.573	-266.326	-306.637	132.847	-87.642	0.027445	0.088683	-0.007953	-0.013674	-0.007845	0.023308
-354.772	115.13	-148.313	-263.867	112.617	234.497	-178.982	83.611	257.304	-242.692	673.991	-307.835	128.773	593.895	-161.713	192.689	627.484	-76.263	-335.504	732.024	-266.8	-306.623	132.84	-87.648	0.024726	0.079598	-0.008889	-0.01126	-0.007486	0.018555
-354.765	115.136	-148.331	-263.812	112.637	234.521	-178.946	83.612	257.306	-243.437	672.883	-307.908	128.947	594.074	-161.852	192.945	627.685	-76.507	-336.607	731.537	-267.357	-306.594	132.823	-87.67	0.016579	0.059584	0.000438	-0.012572	-0.000544	0.017249
-354.759	115.137	-148.287	-263.791	112.652	234.519	-178.91	83.607	257.331	-243.854	672.871	-308.239	129.131	594.229	-162.064	193.195	627.839	-76.709	-337.744	731.112	-267.922	-306.584	132.824	-87.652	0.004865	0.047038	0.01028	-0.011524	0.003467	0.008772
-354.764	115.131	-148.293	-263.775	112.668	234.541	-178.913	83.59	257.314	-245.091	672.438	-307.996	129.287	594.404	-162.266	193.405	627.967	-76.925	-338.921	730.753	-268.509	-306.566	132.834	-87.635	0.000316	0.03625	0.020635	-0.012803	0.011144	0.005333
-354.762	115.15	-148.283	-263.754	112.669	234.536	-178.903	83.581	257.33	-246.699	671.437	-307.424	129.403	594.568	-162.373	193.588	628.114	-77.117	-340.132	730.497	-269.136	-306.57	132.814	-87.606	0.014104	0.036528	0.022735	-0.004533	0.022394	-0.002085
-354.749	115.172	-148.251	-263.766	112.687	234.539	-178.904	83.592	257.321	-248.1	670.76	-307.1	129.526	594.693	-162.576	193.701	628.225	-77.315	-341.35	730.364	-269.858	-306.573	132.792	-87.606	0.027886	0.043043	0.021607	0.002035	0.023472	-0.001335
-354.741	115.179	-148.237	-263.729	112.676	234.552	-178.891	83.574	257.301	-249.399	670.146	-306.838	129.591	594.807	-162.7	193.813	628.347	-77.452	-342.606	730.282	-270.648	-306.532	132.822	-87.556	0.032766	0.044798	0.022517	-0.000806	0.022374	-0.004966
-354.747	115.194	-148.195	-263.742	112.67	234.561	-178.874	83.573	257.319	-250.578	669.623	-306.381	129.621	594.866	-162.973	193.903	628.454	-77.597	-343.941	730.26	-271.584	-306.526	132.822	-87.533	0.029966	0.060227	0.022595	-0.001408	0.01908	-0.012018
