LArm_acc_X	LArm_acc_Y	LArm_acc_Z	RArm_acc_X	RArm_acc_Y	RArm_acc_Z
0.013096	0.006573	0.003149	0.002736	-0.002321	0.001162
0.005773	0.007521	0.003759	0.00066	-0.002253	-0.002643
0.005751	0.006779	0.003037	0.002152	1.4e-05	-0.0049
0.003506	0.003824	0.004534	0.007173	0.003729	-0.004824
0.007162	0.002928	0.005348	0.004862	0.009615	-0.002734
0.002012	1.5e-05	0.004635	0.001923	0.011093	-0.004241
0.00714	-0.001621	-0.00037	0.001828	0.006039	-0.003477
0.007798	-0.004512	-0.002546	-0.004066	0.010433	-0.002899
0.00486	-0.000677	0.001691	-0.005667	0.010475	0.000705
0.004816	0.001633	0.005245	-0.002673	0.009014	-0.003562
0.001922	0.004631	0.005164	-0.003433	0.011217	-0.002873
0.001182	0.003137	7.9e-05	-0.005682	0.009057	-0.001464
-0.003184	0.004648	0.004411	-0.005098	0.011269	0.0022
0.001805	-0.002079	0.005284	0.002201	0.009813	-0.001195
0.006132	-0.004369	0.003157	-8.5e-05	0.011288	0.00095
0.000309	-0.00352	0.001629	-0.003889	0.006231	0.004543
0.003939	-0.002803	-0.002032	-0.001673	0.00401	0.001064
0.000917	-0.004072	-0.000659	0.001888	0.001084	0.000543
-0.000458	0.004101	-0.00083	0.004058	0.000325	-0.001484
0.002425	0.00411	-0.002301	0.00322	-0.001863	3.8e-05
-0.003402	0.006454	-0.000946	0.004638	-0.004794	-0.000566
-0.003438	0.003517	0.001293	-0.000638	-0.006212	0.003704
0.001006	0.005537	0.002081	0.005194	-0.003294	-0.000458
-0.000477	0.003355	0.007222	0.005749	0.000392	0.003201
0.004013	0.005315	0.003664	0.004195	0.001875	0.003923
0.00399	0.00237	0.006643	-0.000319	-0.004633	0.006771
0.004713	0.000104	0.005248	0.004134	-0.000987	0.001787
0.004003	0.001571	0.005223	0.000482	0.001204	0.000976
0.004766	0.003754	0.003007	-0.004448	-0.002464	-0.004946
0.005495	0.003029	0.002291	0.004299	-0.001749	-0.006154
0.007669	0.002259	0.003781	0.001331	-0.006083	-0.004774
0.003295	0.000865	0.003776	0.007132	0.000492	-0.003958
0.001865	0.001614	0.006688	0.001987	-0.003834	-0.002651
0.007721	-0.000766	0.003165	0.004123	-0.000913	-0.001152
0.00559	-5.6e-05	0.003176	0.002619	0.001292	0.000956
0.00562	-8.1e-05	0.00466	0.001893	-0.000164	0.000942
0.004212	-8.4e-05	0.003218	-0.001033	0.001299	0.003006
0.005658	-0.000845	0.005433	-0.006862	0.002758	0.005707
0.004228	-0.004533	-0.001053	-0.003081	0.004937	0.002103
0.003647	0.003498	0.00251	-0.005172	0.004941	-0.000179
0.004209	-0.00674	0.001911	-0.005858	0.007128	0.001178
0.002912	0.001294	0.003283	-0.005845	0.00424	0.003285
0.003658	0.001252	0.001845	-0.002079	0.007154	0.000394
0.001393	-0.005269	-0.001008	-0.003406	0.004942	-0.001849
-0.001513	-0.005187	0.001155	-0.003209	0.004184	-0.006973
0.000642	-0.005917	0.005547	0.001042	0.000572	-0.001079
0.006619	0.000504	0.003356	0.000257	0.005689	0.002467
0.000756	-0.003814	-0.001726	0.000497	0.007844	-0.006274
0.002229	-0.002331	0.001905	0.001179	0.008606	-0.003411
0.000799	-0.001559	-0.000308	0.000503	0.007168	-0.004921
-0.001446	-0.003644	-0.000331	-0.00678	0.007193	-0.003704
0.002291	0.00363	0.000317	-0.002373	0.005002	-0.005038
0.005185	0.00287	-0.001853	0.004058	0.01009	-0.000505
0.006491	-0.0029	0.000367	0.003405	0.007147	-0.003385
0.006446	-0.001376	0.006145	0.000393	0.007134	-0.001211
0.000685	0.003066	0.003861	0.002499	0.002742	0.001104
-0.000802	0.000867	0.000235	0.00395	-0.001643	-0.00024
-0.00087	-0.001315	0.000975	0.004564	0.000563	0.001979
-0.00092	-0.000542	0.007503	0.000838	-0.000873	0.003374
0.0042	0.000816	0.006067	-0.000546	-0.000144	-0.000296
0.000615	0.00374	0.006025	0.001612	0.001327	-0.000244
0.003508	0.002161	0.00536	-0.000721	0.001352	0.004793
0.004915	-7.7e-05	0.003936	-0.002853	-0.000845	0.002581
0.001319	0.004429	0.003822	0.000151	0.00058	-0.00096
0.002704	0.000859	-0.002009	0.001506	-0.000847	0.002698
0.003481	0.009071	0.002185	0.002419	-0.001613	-0.003811
0.005683	0.01201	-0.002251	0.001511	-0.005197	0.004116
0.004046	0.006983	-0.002995	0.002339	-0.006625	0.001875
0.004589	0.004091	0.002818	0.000981	-4.9e-05	0.000263
0.005264	0.003194	-6.1e-05	0.00469	-0.00148	-0.000451
-0.001351	0.001714	-0.000801	0.002385	1e-05	0.006681
0.005028	-0.006491	0.003734	-0.002483	-0.002225	0.001439
-0.005142	-0.005703	0.002226	-0.001831	0.001436	0.007895
-2.7e-05	-0.006597	0.003044	-0.001648	0.00578	0.004179
-0.000811	-0.00656	0.009584	-0.003276	-0.000713	0.012802
0.001419	-0.003679	0.008103	-0.003819	0.004349	0.008363
0.007293	0.000686	0.008058	-0.002139	-0.000784	0.002567
0.0087	0.000747	0.005096	-0.006339	0.002809	0.000216
0.004264	0.002405	0.004231	-0.005654	0.001409	0.005906
0.010797	0.003809	0.002033	0.003413	-0.000782	-0.002713
0.010692	0.003851	0.004165	-0.000122	6e-06	-0.003693
0.002578	0.001766	0.003376	0.002162	0.005136	-0.005225
-0.000412	-0.002624	0.000498	0.006537	0.004428	-0.003722
0.003897	-0.004163	0.001997	0.002313	0.005865	-0.007505
0.004603	-0.003455	0.001251	-0.000715	0.006628	-0.001106
0.005195	-0.004826	0.004113	0.001545	0.007344	-0.001823
0.006613	-0.003349	0.00041	0.000911	0.007344	-0.004063
-0.001409	0.002029	0.003854	-0.004171	0.0059	-0.002073
0.004272	0.001283	0.009669	-0.004937	0.006674	0.002155
0.004343	0.006255	0.000142	0.001799	0.008848	-0.002836
0.005648	0.005546	0.008124	-0.006246	0.009597	0.001245
0.002478	-0.003189	0.004508	-0.002425	0.003024	-0.00376
0.005434	0.002615	0.004431	-0.000366	0.003786	0.002772
0.003182	0.001193	-0.001437	-0.001683	0.000817	-0.000152
0.003847	0.00272	-0.001515	-0.006072	-0.003569	0.003369
0.000118	0.003603	-0.003821	0.000579	-0.002142	0.002758
0.000698	0.004457	0.002637	-0.000592	-0.002887	-0.004635
0.003537	0.002953	-0.000271	0.002998	0.001513	0.000424
-0.001541	0.005943	-0.000355	0.002344	-0.00214	0.001086
-0.001612	0.003008	0.00333	-0.004073	-0.004343	-0.000587
0.004273	0.006485	0.00628	0.004609	-0.005077	0.006101
-0.002324	0.002116	0.003402	-0.003059	-0.007324	-0.002149
-0.001628	-0.001629	0.001298	0.000499	-0.005104	0.005083
0.0021	0.001182	0.000594	-0.000674	-0.00584	-0.000898
0.000567	-0.003124	0.002079	-3.2e-05	-0.010099	0.008336
0.002004	-0.001603	0.008605	0.004649	-0.010764	0.001663
0.000709	0.003416	-0.00163	0.003313	-0.006306	0.003514
0.002152	0.003399	0.001297	0.005777	-0.008474	-0.000264
0.002871	0.001887	-0.000122	-4e-06	-0.020069	0.006662
-0.001598	-0.002392	0.002799	-0.000469	-0.026568	0.006362
0.002183	0.004011	0.001335	-0.003087	-0.032255	0.007288
0.005759	0.001729	0.002848	-0.007165	-0.026916	0.010126
0.010094	0.000153	0.000716	-0.008239	-0.014987	0.011442
0.007784	-0.002704	0.001421	0.000834	-0.011718	0.015834
0.004996	0.005348	-0.000156	0.000703	-0.007775	0.011273
0.008509	0.004634	0.007844	0.00118	-0.002418	0.012588
0.004095	0.003911	0.003438	-0.00406	-0.000723	0.010145
0.00549	0.003855	0.003432	-0.006203	0.0031	0.001965
0.001885	0.006764	-0.001001	-0.001227	0.002611	0.001179
0.003951	0.002402	0.002685	-0.005712	0.010839	0.000141
0.00334	0.008144	-0.001732	0.001573	0.018989	-0.006319
0.002482	0.001597	0.000521	-0.001382	0.029276	-0.010793
-0.000466	0.000188	0.003435	0.002747	0.030084	-0.009856
0.006101	-0.0007	0.002791	0.004634	0.031579	-0.008154
-0.001201	-0.002106	-0.003074	0.000758	0.029357	-0.01009
-0.001981	-0.003563	0.000584	-0.003218	0.022043	-0.009778
0.001589	-0.008056	-0.001511	-0.009332	0.029277	-0.013174
0.000814	-0.008766	-6.4e-05	-0.001052	0.027803	-0.01107
0.002936	-0.01098	-0.001499	0.001531	0.027743	-0.015585
0.005799	-0.008768	0.002821	-0.000527	0.029134	-0.011406
0.002073	-0.010831	-0.000149	-0.007604	0.029757	-0.010923
0.000647	-0.003443	0.003344	0.000442	0.03037	-0.007048
0.004108	-0.00784	0.000438	-0.00372	0.025084	-0.011338
0.001088	-0.006219	0.001762	-0.00015	0.0249	-0.006655
0.002517	-0.002479	0.001652	-0.001633	0.018157	-0.004235
-0.001974	-0.000809	0.003682	-0.004452	0.006312	-0.007629
3.9e-05	-0.002177	0.0058	-0.011266	0.00622	0.001843
0.003566	-0.002877	0.004298	-0.004677	0.007543	-0.000703
0.001364	0.003052	0.002679	0.000343	0.003858	-0.000426
-0.003182	0.001772	0.006212	-0.001229	0.00086	0.001205
-0.00105	0.004629	0.006887	-0.00343	0.000753	-0.000821
-0.002592	0.001726	0.002509	-0.006499	-0.005146	0.003659
-0.002598	0.005463	0.002406	-0.004433	-0.004462	0.006729
0.00178	0.008397	-0.000566	-0.002214	-0.003785	0.004681
0.002502	0.013624	-0.00363	-0.002219	-0.004546	0.004735
0.001671	0.015262	-0.008152	-0.001595	-0.008911	0.008426
0.011659	0.014565	-0.00091	-0.008052	-0.00526	0.006721
0.005663	0.013971	0.000429	-0.004935	0.000568	0.000157
0.004085	0.011693	-0.00029	-0.000543	0.003529	0.000159
0.005517	0.012144	-0.000954	-0.00054	0.002113	0.001532
0.002369	0.003271	0.004987	-0.003529	0.005774	0.006472
-0.000576	0.002415	0.005751	-0.003316	0.00425	0.000673
-0.000467	0.006597	0.003586	-0.005376	0.00128	-0.00154
-0.003571	-0.000638	0.010193	-0.00608	-0.003158	0.001384
8.1e-05	-1e-06	0.00876	-0.002311	-0.003982	-0.000651
-0.005545	0.01105	0.007859	-0.005111	-0.003311	-0.002178
-0.004058	0.010348	0.004958	-0.003705	-0.004062	0.002212
-0.005517	0.007488	0.004992	-0.001355	-0.00484	-0.000668
-0.001009	0.010962	0.002127	-0.004856	-0.005605	-0.002973
-0.003089	0.01087	7e-06	-0.00266	-0.010643	-0.002274
-0.007344	0.01004	-0.000635	-0.007881	-0.003988	0.003243
-0.010125	0.010686	0.006743	-0.007749	-0.000316	-0.000503
-0.012091	0.010422	0.001075	-0.010104	0.004843	0.007328
-0.005291	0.010736	0.000593	-0.011338	-0.002477	0.001474
-0.012313	0.013465	0.002162	-0.014026	-0.005429	-0.004439
-0.012136	0.008014	0.002454	-0.020507	-0.011229	-0.006809
-0.012645	0.004037	0.004193	-0.022869	-0.016146	-0.004067
-0.008742	0.000702	0.005244	-0.017246	-0.006413	-0.002723
-0.008421	-0.001886	-0.000287	-0.013745	0.011309	-0.002927
-0.008042	0.000748	0.004308	-0.013822	0.021689	-0.001738
-0.002589	-0.00039	0.000243	-0.010791	0.020276	-0.00468
-0.002281	0.003864	0.011304	-0.011317	0.010045	-0.007638
-0.004048	0.005796	0.002758	-0.009578	0.005627	-0.012767
0.006489	0.006857	0.006694	-0.00379	0.002011	-0.008336
0.007568	0.00724	0.00549	0.00485	0.007212	-0.004639
0.013776	0.009726	0.006491	0.006968	0.016795	-0.004019
0.010276	0.000707	0.006069	0.009804	0.016868	-0.003265
0.011968	-0.000369	0.007035	0.009822	0.006685	-0.005382
0.017216	-0.006528	0.012448	0.006619	0.003866	0.00183
0.016088	-0.005373	0.01193	0.011594	0.004664	0.002682
0.020823	-0.003618	0.007816	0.012219	0.010553	0.004817
0.024705	-0.00388	0.011673	0.010674	0.021478	0.00908
0.027151	-0.004111	0.008946	0.012247	0.01774	0.009156
0.027409	-0.004239	0.003256	0.016007	0.013251	0.011454
0.022544	-0.001208	0.006912	0.016285	0.003686	0.007811
0.024327	0.003093	0.00408	0.010737	0.009454	0.004607
0.018053	0.00384	-0.003869	0.016032	0.004364	0.003843
0.004292	-0.00095	0.004169	0.014767	0.008732	0.002893
-0.004072	0.002033	-0.000145	0.014406	-0.000767	-0.00664
-0.005179	0.001135	-0.004309	0.004907	-0.007975	-0.004767
-0.018678	-0.001688	-0.002704	0.001317	-0.005698	-0.01145
-0.024806	-0.002481	-0.003956	-0.001159	-0.006192	-0.012256
-0.027955	-0.002517	-0.007386	-0.003278	0.002099	-0.000694
-0.033991	-0.003814	-0.010846	0.000646	0.016812	0.003829
-0.037654	-0.001425	-0.012835	-0.001159	0.016091	0.008395
-0.03758	-0.003371	-0.014701	-0.003496	0.00585	0.010025
-0.037932	0.002767	-0.012953	-0.006375	-0.002946	0.00791
-0.038326	-0.003563	-0.019005	-0.018082	-0.004356	0.011185
-0.034051	0.002381	-0.018535	-0.02174	-0.000544	0.013706
-0.037161	0.005367	-0.017332	-0.020843	0.003998	0.009028
-0.030948	0.006578	-0.013852	-0.026621	0.004202	0.007846
-0.030042	0.002632	-0.011828	-0.024456	7.2e-05	0.00476
-0.021266	-0.00366	-0.011217	-0.020184	-0.00254	-0.00114
-0.024509	-0.01971	-0.007822	-0.01992	0.002226	0.002309
-0.023938	-0.021025	-0.005396	-0.021303	0.012171	0.008612
-0.023901	-0.012728	-0.013339	-0.028929	0.029993	0.005349
-0.018163	-0.010192	-0.013194	-0.02854	0.033179	0.007431
-0.010934	-0.006215	-0.007206	-0.036791	0.026793	0.01225
-0.006635	-0.004605	-0.009178	-0.038808	0.018128	0.004859
-0.003215	-0.009665	-0.011059	-0.041052	0.013928	0.004648
0.004567	-0.011914	-0.012224	-0.035392	0.014928	0.005278
0.006456	-0.012444	-0.013542	-0.032084	0.016724	0.00876
0.005284	-0.013458	-0.009879	-0.021429	0.028615	0.00604
0.002713	-0.009935	-0.009983	-0.022572	0.026602	0.00619
0.002982	-0.009991	-0.014447	-0.027493	0.017273	0.010739
0.001905	-0.004111	-0.020472	-0.022721	0.0108	0.006821
-2.2e-05	-0.004874	-0.026404	-0.026252	0.008069	0.01422
-0.007651	0.005352	-0.020095	-0.017988	0.013386	0.015975
-0.013338	-0.000737	-0.023	-0.012654	0.020171	0.019787
-0.017516	-0.001863	-0.023737	-0.009265	0.020328	0.016335
-0.015271	-0.007503	-0.022925	-0.005907	0.014622	0.013706
-0.026166	-0.009121	-0.018695	0.00252	0.008885	0.010558
-0.03482	-0.010682	-0.023954	-0.000118	0.005323	0.010842
-0.033298	-0.011404	-0.021205	-0.002649	0.003195	0.006775
-0.031049	-0.016328	-0.024275	-0.000249	0.007622	0.009364
-0.032862	-0.004979	-0.022483	-0.005765	0.003308	0.011004
-0.032457	0.007677	-0.022845	-0.005275	0.009876	0.008345
-0.032245	0.012802	-0.020885	-0.005462	0.006241	0.005682
-0.028547	0.013989	-0.01078	0.005938	0.00693	0.003402
-0.024945	0.009776	-0.009296	0.009269	0.006857	0.001747
-0.023205	-0.008968	-0.002617	0.019087	0.010372	-0.001058
-0.022623	-0.012337	-0.006354	0.022309	0.006555	-0.004589
-0.016437	-0.016818	-0.002217	0.024537	0.00204	-0.000807
-0.013806	-0.010744	-0.004204	0.01866	0.001192	0.005663
-0.01269	-0.002926	-0.006343	0.013725	0.004692	0.003409
-0.010229	0.002173	-0.004154	0.014362	0.006818	0.011397
-0.010615	0.005762	-0.010673	0.018864	0.000215	0.010746
-0.009383	0.014466	-0.008451	0.01685	-0.000555	0.007722
-0.004488	0.011183	-0.01685	0.016077	-0.005641	0.010578
0.001245	0.010749	-0.013538	0.024865	-0.007113	0.007181
-0.001506	0.018371	-0.013224	0.024079	-0.00713	0.005783
0.000726	0.018525	-0.01129	0.020535	-0.01084	-0.003581
-0.003575	0.021642	-0.00651	0.022499	-0.014449	-0.002677
-0.000627	0.017254	-0.005904	0.022357	-0.015092	-0.006264
-0.000581	0.01665	0.000432	0.018448	-0.00835	-0.006443
0.005343	0.01382	-0.001916	0.013025	-0.000854	-0.004506
0.005597	0.019198	-0.000771	0.005554	0.003652	-0.005481
0.00877	0.027458	0.004726	-0.006142	0.010234	-0.007267
0.011767	0.027651	0.019816	-0.018589	0.015263	-0.002499
0.018552	0.029631	0.016797	-0.019197	0.009289	-0.001017
0.017095	0.025956	0.020288	-0.019831	0.011982	0.003392
0.004775	0.025279	0.023701	-0.024165	0.005862	0.012185
0.001949	0.0177	0.023731	-0.015861	0.008334	0.011932
0.014454	0.007698	0.015889	-0.016967	-0.005279	0.013703
0.020364	0.003338	0.011386	-0.01795	-0.007995	0.013204
0.026875	0.000127	0.009591	-0.002204	-0.009943	0.013785
0.026348	0.014014	0.005992	-0.001104	-0.01177	0.019625
0.028597	0.020611	0.003935	0.005972	-0.011364	0.019694
0.034495	0.022595	0.004977	0.014717	-0.011695	0.011066
0.03615	0.022983	0.003948	0.013529	-0.003237	0.018909
0.032706	0.015257	0.005287	0.011912	-0.00143	0.014508
0.03755	0.010757	0.009035	0.014648	-0.001131	0.010301
0.046279	0.015456	0.010624	0.007281	-0.001615	0.005127
0.060684	0.014871	0.012319	0.007287	-0.004998	-0.001378
0.072085	0.017954	0.010235	0.009451	-0.004664	-0.005788
0.074298	0.01046	0.013136	0.008667	-0.006481	-0.006706
0.073383	0.001145	0.012922	0.009408	-0.00466	-0.009087
0.072493	-0.001909	0.01172	0.017288	0.007265	-0.003965
0.065826	-0.003	0.008851	0.024564	0.014657	0.000553
0.0594	0.006384	0.006522	0.026088	0.013923	0.005056
0.042776	0.010264	0.009278	0.035878	0.007958	0.000456
0.025909	0.020389	0.010039	0.036907	0.003419	-0.001456
0.027568	0.034782	0.014836	0.0409	-0.01059	-0.006145
0.025834	0.02047	0.017865	0.045505	-0.01731	-0.008627
0.027854	0.016182	0.017165	0.053784	-0.020328	-0.018997
0.027368	0.00921	0.017753	0.052734	-0.020272	-0.01075
0.026095	0.01051	0.019528	0.053341	-0.013709	-0.011175
0.016034	0.013656	0.013778	0.044305	-0.00787	-0.003836
0.007984	0.013347	0.006486	0.044681	-0.002784	0.00738
0.003242	0.003626	0.00286	0.035968	-0.005791	0.007482
-0.00802	0.005739	0.004801	0.025956	-0.012986	0.028535
-0.015783	0.00183	0.005401	0.028679	-0.008503	0.032367
-0.021838	0.00567	-0.00052	0.019708	-0.002495	0.03657
-0.020764	-0.006761	-0.006107	0.015845	-0.005116	0.037223
-0.021595	-0.016299	-0.01455	0.005443	-0.00259	0.034759
-0.019974	-0.016956	-0.01505	-0.008644	2.8e-05	0.031413
-0.012991	-0.013222	-0.01918	-0.024752	-0.001619	0.021344
-0.014811	-0.014329	-0.013119	-0.033036	-0.002368	0.017834
-0.007764	-0.012974	-0.011989	-0.042562	0.009337	0.006105
-0.005238	-0.016205	-0.016613	-0.049961	0.003653	-0.001266
-0.002311	-0.026087	-0.010247	-0.044288	0.008182	-0.008358
0.002723	-0.031003	-0.009806	-0.037139	0.016286	-0.01608
-0.001954	-0.034279	-0.013973	-0.04226	0.022809	-0.024748
-0.013706	-0.045202	-0.008133	-0.032905	0.027713	-0.027065
-0.026193	-0.048792	-0.014893	-0.019163	0.028058	-0.027606
-0.022157	-0.051678	-0.017359	-0.008873	0.023103	-0.034542
-0.027147	-0.05405	-0.017985	-0.004606	0.010099	-0.035662
-0.033009	-0.050922	-0.012364	0.009468	0.010242	-0.025617
-0.035729	-0.03406	-0.008331	0.012666	0.010439	-0.020234
-0.03338	-0.021981	-0.005521	0.022411	0.013562	-0.017574
-0.025407	-0.013237	0.004015	0.024042	0.021814	-0.012946
-0.016239	-0.008601	0.004185	0.026364	0.019957	-0.009046
-0.011958	-0.011367	0.010886	0.026558	0.013779	-0.010998
-0.016054	-0.015545	0.016684	0.024347	0.01715	-0.007974
-0.007025	-0.004057	0.025261	0.024443	0.021978	-0.012149
-0.007998	-0.004796	0.038133	0.019317	0.018821	-0.014915
-0.003911	-0.000452	0.047222	0.017678	0.018578	-0.013203
0.003508	-0.015661	0.044033	0.013752	0.018367	-0.011505
0.012946	-0.00293	0.041171	0.019212	0.020346	-0.01096
0.016472	-0.001637	0.037646	0.012356	0.024479	-0.015035
0.022736	0.014055	0.028307	0.013419	0.017701	-0.015951
0.03277	0.032332	0.022037	0.005903	0.019606	-0.021473
0.041752	0.035667	0.029234	0.003355	0.011307	-0.020997
0.040499	0.034129	0.024272	0.008977	0.009513	-0.024716
0.039854	0.030736	0.028237	0.008701	0.007036	-0.024285
0.042609	0.010891	0.024531	0.010533	0.008231	-0.019512
0.046799	-0.005303	0.027314	0.011162	0.007946	-0.022803
0.048163	-0.014754	0.022591	0.014697	0.006209	-0.023155
0.044449	-0.024675	0.013367	0.004566	0.00158	-0.026851
0.03738	-0.021997	0.004664	-0.007178	-0.006635	-0.022648
0.033538	-0.015137	-0.01121	-0.014558	-0.012598	-0.016995
0.031843	-0.020097	-0.016545	-0.016993	-0.002425	-0.003448
0.031866	-0.023831	-0.015079	-0.004961	0.019992	-0.002809
0.035052	-0.032179	-0.011084	-0.016786	0.026169	-0.018136
0.036571	-0.032619	-0.005463	-0.028005	0.0112	-0.015342
0.044908	-0.03687	-0.001016	-0.036444	-0.008236	-0.026392
0.0482	-0.041742	0.010017	-0.025794	-0.021811	-0.040025
0.047418	-0.033538	0.009234	-0.01507	-0.019299	-0.055299
0.042593	-0.035256	0.020766	-0.01265	-0.0094	-0.061413
0.034736	-0.035419	0.028493	0.006339	-0.003176	-0.068353
0.017348	-0.037585	0.026623	0.01926	-0.010889	-0.074356
0.005696	-0.038889	0.040004	0.038128	-0.013563	-0.070402
-0.002897	-0.042518	0.036727	0.047551	-0.011273	-0.075147
-0.002719	-0.041839	0.039992	0.045574	-0.005314	-0.064838
-0.006965	-0.043187	0.048326	0.035836	-0.007311	-0.061373
-0.002213	-0.038147	0.05381	0.022564	-0.004176	-0.055285
-0.000477	-0.044713	0.0514	0.01455	0.004107	-0.045699
0.006533	-0.040899	0.059046	-0.002667	0.008103	-0.035902
0.000644	-0.034329	0.067975	-0.014613	0.019405	-0.024028
-0.002697	-0.020327	0.074691	-0.023545	0.028503	-0.010697
-0.011724	-0.008335	0.082188	-0.038015	0.031677	-0.005451
-0.016933	-0.000275	0.079736	-0.046785	0.023936	0.002218
-0.02273	0.001004	0.07028	-0.049163	0.014048	0.009421
-0.034155	-0.003585	0.06181	-0.040671	0.012923	0.013286
-0.034874	-0.001966	0.052181	-0.041297	0.014135	0.024188
-0.035231	-0.003355	0.040664	-0.027946	0.016078	0.026021
-0.041166	-0.008923	0.03222	-0.012549	0.016527	0.030209
-0.045114	-0.005031	0.024609	-0.010331	0.01629	0.036942
-0.046663	0.001744	0.019261	-0.003766	0.009671	0.044348
-0.053236	0.001209	0.003124	0.00459	0.006021	0.04145
-0.053245	0.004231	0.003059	0.003703	0.005383	0.035163
-0.062007	0.003559	0.000877	-0.003609	-0.003863	0.032081
-0.069211	0.003338	-0.008477	-0.01052	-0.010816	0.019264
-0.071635	-0.00648	-0.01117	-0.008051	-0.019	0.013637
-0.084815	-0.000738	-0.013482	-0.004162	-0.015349	0.010659
-0.084298	0.001996	-0.012112	-0.000347	-0.014517	0.009065
-0.087367	0.001058	-0.023081	0.007117	-0.01302	0.004044
-0.085364	0.000114	-0.02821	0.005686	-0.015202	0.001132
-0.077426	0.002783	-0.02676	0.010676	-0.018126	0.000642
-0.078021	0.008443	-0.033359	0.01651	-0.024684	-0.007061
-0.076288	0.018319	-0.03772	0.019143	-0.030365	-0.005504
-0.071214	0.017824	-0.035378	0.024064	-0.03511	-0.009947
-0.067642	0.017292	-0.030128	0.026698	-0.03164	-0.011795
-0.063323	0.019588	-0.027096	0.030768	-0.025084	-0.013108
-0.062173	0.008811	-0.023961	0.020367	-0.015592	-0.015621
-0.058672	0.005886	-0.031822	0.019404	-0.008298	-0.01358
-0.05389	0.003836	-0.030339	0.012205	-0.006912	-0.018985
-0.047831	0.004049	-0.0261	-2.9e-05	-0.005647	-0.020145
-0.04565	0.002203	-0.021994	-0.004916	-0.004449	-0.01897
-0.048611	0.006944	-0.023184	-0.01104	-0.000401	-0.020105
-0.046678	0.008668	-0.017058	-0.009869	-0.002237	-0.020271
-0.037567	0.008622	-0.019607	-0.009613	0.002456	-0.013178
-0.038914	0.004496	-0.015743	-0.010396	0.003417	-0.021339
-0.03668	0.002656	-0.011259	-0.020923	0.010204	-0.018124
-0.043021	0.012066	-0.007047	-0.019756	0.0141	-0.016115
-0.039269	0.018581	-0.002094	-0.020435	0.025328	0.000347
-0.026021	0.030823	0.002808	-0.027398	0.026251	0.007322
-0.015736	0.043758	0.007682	-0.024062	0.029921	0.011787
0.001522	0.041275	0.019342	-0.025689	0.029067	0.014082
0.01742	0.04089	0.026646	-0.024381	0.028114	0.017973
0.021723	0.034167	0.028883	-0.018024	0.024228	0.024198
0.032769	0.03405	0.033997	-0.008658	0.017415	0.026154
0.035125	0.034953	0.033143	-0.006484	0.009155	0.022846
0.047212	0.046788	0.03587	0.000573	0.008973	0.023991
0.058481	0.050606	0.033587	-0.002005	-0.007811	0.024936
0.076411	0.053572	0.016793	0.00532	-0.012812	0.029002
0.081887	0.054916	0.005627	0.003883	-0.016989	0.027748
0.089576	0.056616	0.000923	0.010177	-0.016698	0.031769
0.096912	0.0649	-0.014717	0.007588	-0.014178	0.037769
0.097878	0.078363	-0.022364	0.012621	-0.014623	0.028035
0.111894	0.086981	-0.026103	0.009767	-0.018584	0.039894
0.114873	0.09536	-0.030553	0.01078	-0.022545	0.041649
0.121302	0.102502	-0.029031	0.01321	-0.021351	0.042649
0.118467	0.092836	-0.026693	0.018661	-0.014296	0.040679
0.126233	0.080752	-0.021434	0.017115	-0.01599	0.030474
0.122028	0.067488	-0.020804	0.013962	-0.015441	0.029525
0.111778	0.058852	-0.019729	0.002276	-0.022901	0.026055
0.105807	0.050965	-0.022368	-0.005311	-0.022423	0.010172
0.099844	0.053275	-0.023002	-0.012399	-0.027022	0.005186
0.089058	0.040945	-0.019158	-0.010559	-0.026579	-0.011126
0.064432	0.03581	-0.013251	0.001168	-0.025407	-0.018369
0.048295	0.021315	-0.009978	0.006376	-0.015657	-0.027051
0.031224	0.002999	-0.007402	0.013553	-0.014033	-0.026727
0.013927	-0.020393	-0.001188	0.018654	-0.011842	-0.029186
-0.000339	-0.042293	-0.001542	0.018674	-0.011898	-0.033818
-0.009444	-0.057472	0.003074	0.032946	-0.016273	-0.027889
-0.017814	-0.066307	0.016172	0.03429	-0.017067	-0.027371
-0.020897	-0.061035	0.029738	0.037142	-0.011358	-0.023994
-0.02196	-0.057077	0.037357	0.03624	-0.002716	-0.012112
-0.02833	-0.052879	0.03601	0.040462	0.003027	0.000558
-0.035079	-0.056343	0.035975	0.044173	4e-05	0.005188
-0.041734	-0.050844	0.024766	0.028849	0.003631	0.01365
-0.045601	-0.046441	0.018517	0.016431	0.002859	0.018643
-0.055086	-0.030645	0.017092	0.015536	0.005756	0.026108
-0.057753	-0.010534	0.01427	0.006111	0.012186	0.028307
-0.061633	0.010223	0.007914	-0.001244	0.020032	0.033573
-0.06033	0.022059	0.006957	-0.01023	0.021351	0.043946
-0.056724	0.018427	-0.006019	-0.015618	0.021258	0.054379
-0.050565	0.014924	-0.023253	-0.020817	0.029119	0.056131
-0.047752	0.012381	-0.035333	-0.023063	0.041301	0.055111
-0.046752	0.012113	-0.037805	-0.035231	0.042487	0.044489
-0.04181	0.010753	-0.046564	-0.03746	0.029136	0.042936
-0.038211	0.009009	-0.054399	-0.035421	0.029611	0.042958
-0.039758	0.002622	-0.062811	-0.027609	0.017752	0.039617
-0.042051	-0.008268	-0.067442	-0.022911	0.020506	0.034143
-0.050774	-0.021975	-0.07493	-0.009094	0.021908	0.029123
-0.054833	-0.029788	-0.077291	0.000309	0.030572	0.016948
-0.063636	-0.031509	-0.073122	-0.00707	0.026837	0.00238
-0.062659	-0.028918	-0.065931	-0.007157	0.028894	-0.016968
-0.058804	-0.02483	-0.055875	0.003461	0.022999	-0.033737
-0.051378	-0.009899	-0.0431	0.015242	0.018609	-0.04668
-0.037911	-0.001762	-0.031806	0.019619	0.020001	-0.063168
-0.025021	-0.002428	-0.023515	0.022119	0.027918	-0.073528
-0.019861	-0.00731	-0.009565	0.024785	0.027816	-0.072541
-0.009041	-0.007227	0.000612	0.027321	0.027587	-0.071207
0.00083	-0.005012	0.009933	0.023871	0.022173	-0.062575
0.011873	-0.005085	0.017741	0.024128	0.026797	-0.054443
0.018989	-0.00808	0.029858	0.025023	0.022557	-0.038143
0.023061	-0.01124	0.034656	0.018929	0.013763	-0.027702
0.028715	-0.021004	0.038247	0.019545	0.001863	-0.016957
0.029198	-0.012868	0.038323	0.015101	-0.013726	-0.002734
0.033299	-0.009815	0.030438	0.015754	-0.015513	0.016556
0.038275	-0.000795	0.028308	0.021227	-0.030418	0.021333
0.036818	0.009165	0.022474	0.022808	-0.031389	0.040265
0.03174	0.01332	0.014553	0.015336	-0.03528	0.050025
0.026913	0.024664	0.007376	0.008182	-0.033353	0.054454
0.022821	0.031558	0.00178	-0.003153	-0.044467	0.057829
0.014821	0.021929	0.007993	-0.012179	-0.044557	0.060197
0.011737	0.025962	-0.001821	-0.023154	-0.043102	0.054295
0.006634	0.030148	-0.005034	-0.030026	-0.032691	0.055495
0.001632	0.032922	-0.003066	-0.040476	-0.008352	0.053475
-0.006923	0.037763	-0.003253	-0.049395	0.008758	0.048524
-0.008166	0.039971	-0.012714	-0.064996	0.027329	0.050641
-0.012516	0.039257	-0.009775	-0.070775	0.036351	0.044265
-0.025932	0.024781	-0.010424	-0.07356	0.044597	0.040087
-0.026821	0.016636	-0.011759	-0.086444	0.054975	0.038478
-0.033592	0.010892	-0.009596	-0.088794	0.056535	0.031958
-0.032447	0.008007	-0.004577	-0.089741	0.063876	0.033387
-0.0378	0.010919	-0.011347	-0.083814	0.06887	0.025668
-0.032619	0.004122	-0.01143	-0.077711	0.062836	0.013724
-0.032551	0.004566	-0.014579	-0.067373	0.053786	0.005049
-0.035711	-0.005188	-0.014028	-0.05651	0.047621	0.00019
-0.037308	-0.006944	-0.012113	-0.038581	0.042883	-0.002095
-0.035409	-0.013791	-0.006511	-0.031452	0.030061	-0.013852
-0.031949	-0.014802	-0.00463	-0.018779	0.028846	-0.018762
-0.022635	-0.012184	0.000129	-0.009682	0.023242	-0.028753
-0.015759	-0.015161	0.012835	0.001931	0.013354	-0.027707
-0.005696	-0.006548	0.019621	0.010567	0.012234	-0.02818
0.004118	-0.008057	0.030112	0.024181	0.000263	-0.027755
0.009851	-0.003008	0.028171	0.03047	-0.009498	-0.029643
0.014911	0.001541	0.03423	0.032175	-0.01408	-0.026593
0.022303	-0.001942	0.026629	0.032289	-0.013513	-0.019284
0.026519	0.005655	0.020442	0.031668	-0.007797	-0.012805
0.025951	0.013311	0.01365	0.024484	-0.010785	-0.006485
0.040116	0.017693	0.010082	0.02172	-0.004293	-0.001606
0.035936	0.007716	0.008824	0.016785	-0.006544	0.003967
0.028378	-0.001694	-0.000309	0.014688	-0.001478	0.012438
0.016523	-0.012495	-0.005751	0.009726	0.000685	0.02079
0.001301	-0.010837	-0.009872	0.004945	-0.00229	0.023356
-0.004661	-0.01801	-0.013878	0.002417	0.002011	0.025164
-0.008335	-0.014293	-0.022421	-0.003823	0.012131	0.029779
-0.029648	-0.010181	-0.03268	-0.007071	0.009154	0.030879
-0.036592	-0.00758	-0.032725	-0.008958	0.007691	0.035571
-0.038564	-0.0065	-0.034236	-0.009036	0.002521	0.025833
-0.035448	-0.003363	-0.032812	-0.012275	0.001038	0.026145
-0.033907	-0.005442	-0.02984	-0.014659	0.006115	0.022033
-0.031566	-0.006292	-0.033358	-0.022821	0.001741	0.017756
-0.015148	-0.020647	-0.014009	-0.027162	-0.001211	0.009163
-0.002988	-0.026135	-0.005073	-0.027242	0.00021	0.00787
0.011284	-0.029489	0.001612	-0.021975	-0.001337	-0.000567
0.018948	-0.031158	0.00522	-0.018187	-0.002894	-0.006156
0.019245	-0.028098	0.017335	-0.014978	-0.007458	-0.014596
0.025364	-0.025821	0.019246	-0.00257	-0.012045	-0.012543
0.018345	-0.023879	0.018795	0.00291	-0.015273	-0.021552
0.027408	-0.01988	0.020594	-0.001969	-0.019957	-0.022096
0.024142	-0.01418	0.017158	0.000411	-0.015909	-0.020343
0.018673	-0.006897	0.023876	-0.000903	-0.007481	-0.013685
0.016197	-0.001995	0.016121	0.002542	-0.004193	-0.019318
0.01227	0.003022	0.01637	0.00727	-0.004437	-0.018487
0.015858	0.012875	0.007232	0.008868	0.009939	-0.010556
0.010557	0.01422	0.004676	0.004103	0.014844	-0.010745
0.010326	0.008107	0.00086	0.001515	0.016807	-0.011526
0.005831	0.004165	-0.00441	0.003839	0.023142	-0.008466
0.010764	3.6e-05	-0.005226	-0.000424	0.022967	-0.006275
0.007889	0.006094	-0.008342	-0.003853	0.026413	-0.00843
0.011985	-0.004077	-0.009746	-0.000177	0.02481	-0.005299
0.011839	-0.005491	-0.014197	0.008697	0.030439	-0.009221
0.010868	-0.011126	-0.014279	0.01008	0.034615	-0.008125
0.007117	-0.012164	-0.013741	0.007826	0.03439	-0.009183
0.002709	-0.01087	-0.008148	0.012791	0.025402	-0.010632
0.002034	-0.009028	-0.00757	0.010475	0.017126	-0.01508
0.002111	-0.005133	-0.002582	0.016737	0.010305	-0.016319
0.005095	0.002088	-0.002662	0.016529	0.006405	-0.022809
0.009221	-0.000929	0.000978	0.018211	0.002554	-0.019777
0.010934	-0.013157	0.008246	0.015526	-0.010008	-0.018274
0.007695	-0.025834	0.008169	0.01376	-0.013868	-0.021916
0.001109	-0.035433	0.003721	0.011803	-0.02058	-0.01691
-0.006495	-0.029661	0.006476	0.011484	-0.022192	-0.017771
-0.00866	-0.015148	0.018014	0.016784	-0.02591	-0.011281
-0.006409	-0.013921	0.02698	0.011391	-0.02602	-0.012366
0.004704	-0.024674	0.02613	0.015622	-0.026893	-0.020442
0.001967	-0.049931	0.022592	0.008521	-0.028412	-0.010704
0.004088	-0.063466	0.026357	0.008954	-0.027061	-0.008821
0.008958	-0.065688	0.016857	0.011546	-0.023524	-0.002602
0.015683	-0.050101	0.028019	0.009166	-0.019984	0.00194
0.019236	-0.027961	0.029477	0.009091	-0.020112	0.004343
0.02693	-0.001206	0.027321	0.002624	-0.01517	0.003594
0.035545	0.021929	0.023836	-0.00222	-0.019678	-0.002953
0.042033	0.034679	0.02941	-0.000936	-0.024832	0.005193
0.046929	0.052605	0.028077	0.005295	-0.019057	0.011407
0.051535	0.07154	0.032203	0.01423	-0.027787	0.043531
0.061717	0.086891	0.023686	0.005918	-0.063783	0.057117
0.07481	0.092227	0.019934	-0.003159	-0.110841	0.063861
0.061975	0.071426	0.01639	-0.015711	-0.138744	0.061377
0.066452	0.051627	0.017605	-0.030886	-0.153803	0.054942
0.092262	0.054326	0.019942	-0.044582	-0.152979	0.031175
0.087934	0.053707	0.021747	-0.040389	-0.126208	0.050407
0.065379	0.060622	0.029555	-0.050371	-0.073766	0.083059
0.06006	0.084825	0.029259	-0.061425	-0.038915	0.076338
0.055349	0.101634	0.042218	-0.071394	-0.040159	0.051549
0.044559	0.110337	0.027265	-0.080881	-0.060579	0.044574
0.04168	0.097806	0.025371	-0.093537	-0.065781	0.024987
0.027866	0.062903	0.018887	-0.089788	-0.058486	-0.011213
0.015867	0.023076	-0.001847	-0.098786	-0.071736	-0.033909
0.020788	-0.013227	-0.013809	-0.10414	-0.068916	-0.025803
0.019612	-0.017525	-0.023567	-0.094865	-0.041045	-0.037307
0.021366	-0.005683	-0.02081	-0.082103	-0.007263	-0.058797
0.014534	0.024895	-0.019311	-0.050613	0.014087	-0.087406
0.008046	0.036305	-0.017582	-0.026832	0.029549	-0.092924
0.003028	0.041852	-0.019897	-0.013379	0.03225	-0.087974
0.000824	0.032017	-0.02685	-0.002559	0.028917	-0.063136
-6e-06	0.012953	-0.034283	-0.001097	0.029539	-0.055916
0.002008	-0.004691	-0.038878	0.012377	0.023751	-0.094945
-0.000619	-0.023356	-0.037183	0.022531	-0.003337	-0.081877
0.006071	-0.032506	-0.038653	0.045699	-0.018864	-0.060474
0.00565	-0.047116	-0.040378	0.047296	-0.01944	-0.058616
-0.003875	-0.057717	-0.039522	0.059094	0.003435	-0.064234
-0.018004	-0.058115	-0.035271	0.076916	0.041467	-0.062879
-0.027977	-0.056605	-0.030291	0.097847	0.079009	-0.079609
-0.030794	-0.050239	-0.021688	0.109555	0.085627	-0.083479
-0.031823	-0.060849	-0.020899	0.090809	0.085211	-0.068365
-0.041086	-0.071152	-0.013743	0.072687	0.100184	-0.048823
-0.053517	-0.086259	-0.008896	0.063628	0.118027	-0.034714
-0.062905	-0.082198	-0.007315	0.05725	0.127061	-0.02909
-0.069095	-0.084237	-0.000801	0.057527	0.135503	-0.017605
-0.069592	-0.075101	0.000324	0.07044	0.132418	-0.028656
-0.068261	-0.060554	0.001178	0.06543	0.126101	-0.033548
-0.0739	-0.047809	0.004006	0.053551	0.110142	-0.031535
-0.082063	-0.040013	0.006041	0.045627	0.094681	-0.047138
-0.093036	-0.051004	0.003043	0.035958	0.100349	-0.039855
-0.087945	-0.03732	0.004871	0.028444	0.126119	-0.02368
-0.083419	-0.03219	-0.002856	0.019864	0.160718	-0.006267
-0.08727	-0.017067	-0.002977	0.006534	0.174012	-0.005544
-0.082674	0.006736	-0.006167	0.006455	0.165178	-0.023747
-0.078709	0.021219	-0.003572	0.015486	0.121696	-0.024405
-0.072143	0.036315	-0.003928	0.027001	0.054204	-0.034656
-0.07157	0.056521	-3.1e-05	0.028097	-0.006072	-0.031024
-0.071235	0.067765	0.002561	0.025953	-0.026131	-0.038563
-0.069027	0.062748	0.001759	0.021669	9.9e-05	-0.018065
-0.066614	0.072849	0.008146	0.016282	0.051035	-0.001686
-0.061388	0.077535	0.005218	0.023699	0.093316	0.011117
-0.061955	0.08732	0.006591	0.016816	0.099068	0.025916
-0.061161	0.082919	0.002439	0.003801	0.072581	0.034983
-0.059269	0.089102	-0.001657	0.001869	0.042278	0.043017
-0.042087	0.083121	-0.00682	-0.01036	0.021302	0.036186
-0.036488	0.07512	-0.000334	-0.014395	0.003551	0.034848
-0.030713	0.062447	0.002723	-0.013343	-0.007908	0.041697
-0.016504	0.055744	0.004562	-0.010273	-0.002509	0.035871
-0.021106	0.044729	0.009363	-0.010061	0.016775	0.039221
-0.021191	0.031235	0.008508	-0.021676	0.022186	0.034952
-0.017311	0.027069	0.002532	-0.018307	0.020149	0.027528
-0.014321	0.016598	0.012582	-0.023094	0.012854	0.034631
-0.000801	0.013934	0.002965	-0.03029	0.007443	0.028813
0.000258	0.011892	0.00475	-0.033224	-0.017524	0.029608
0.007958	0.009875	-1.8e-05	-0.033374	-0.034194	0.035195
0.009	0.005253	0.000213	-0.028161	-0.050612	0.030394
0.020519	0.016491	0.002544	-0.027745	-0.034682	0.041016
0.018668	0.011856	-0.002333	-0.025032	-0.027474	0.05023
0.019343	0.025261	-0.002949	-0.015567	-0.029124	0.056835
0.027711	0.019445	-0.002505	-0.013541	-0.041856	0.071495
0.031829	0.015711	-0.008607	-0.017386	-0.070047	0.06506
0.035807	0.007585	-0.001523	-0.014637	-0.097423	0.060117
0.035548	-0.002796	-0.006046	-0.011278	-0.107045	0.060615
0.036014	-0.011654	-0.006235	-0.011373	-0.119871	0.061208
0.033749	-0.007407	-0.003658	0.00632	-0.124364	0.055233
0.032028	-0.011923	0.006318	0.012362	-0.12281	0.050134
0.026811	-0.015156	0.006138	0.022504	-0.129122	0.053057
0.021406	-0.029276	0.0119	0.02564	-0.128826	0.045489
0.021486	-0.027401	0.021912	0.024334	-0.129852	0.04203
0.013348	-0.042074	0.029106	0.019554	-0.130722	0.033908
0.008565	-0.03851	0.039043	0.015289	-0.136396	0.034239
0.000213	-0.034827	0.04967	0.016144	-0.132438	0.03373
-0.005845	-0.0318	0.061765	0.026451	-0.136999	0.033971
-0.008694	-0.028039	0.064418	0.02783	-0.127519	0.040976
-0.004214	-0.029275	0.068587	0.033098	-0.122255	0.039147
0.006379	-0.024506	0.071211	0.038454	-0.120519	0.034272
0.007683	-0.020666	0.076592	0.048098	-0.114413	0.033116
0.007153	-0.01081	0.07677	0.056252	-0.121337	0.035512
0.017977	0.007581	0.068238	0.068459	-0.12688	0.024918
0.022947	0.017238	0.059073	0.083263	-0.12939	0.028799
0.033626	0.018626	0.047908	0.093179	-0.129624	0.025114
0.050025	0.016027	0.025957	0.104855	-0.118734	0.034328
0.057472	0.012934	0.012626	0.107078	-0.10033	0.035721
0.066244	0.013446	0.006533	0.101966	-0.091114	0.035898
0.069821	0.015483	0.002552	0.102904	-0.085913	0.046802
0.07615	0.014363	-0.006435	0.101339	-0.083287	0.05947
0.076513	0.018362	-0.007509	0.102752	-0.06089	0.06322
0.078332	0.030904	-0.00936	0.098324	-0.024632	0.065954
0.076457	0.040975	-0.009635	0.091287	0.001947	0.059382
0.071511	0.038243	-0.008894	0.091008	0.016567	0.044637
0.08861	0.007739	-0.018097	0.078159	0.009882	0.036474
0.102901	0.000981	-0.026334	0.067673	-0.001296	0.021947
0.109322	0.004741	-0.029719	0.058016	0.008601	0.006602
0.115036	0.013021	-0.025195	0.054087	0.025732	-0.003502
0.12946	0.016635	-0.02561	0.047833	0.046468	-0.007098
0.136798	0.02901	-0.018848	0.04376	0.077256	-0.007626
0.141939	0.033923	-0.001731	0.035403	0.09028	-0.009273
0.138732	0.047213	0.00666	0.020739	0.094873	-0.016342
0.141329	0.051292	0.018239	0.006105	0.087411	-0.017729
0.140038	0.037013	0.022016	-0.009611	0.068597	-0.04421
0.139618	0.028528	0.023539	-0.015526	0.048793	-0.068012
0.139767	0.013607	0.027256	-0.017603	0.028123	-0.085795
0.138615	0.006999	0.019826	-0.027092	0.015291	-0.113183
0.132973	0.002537	0.022322	-0.037605	0.019838	-0.12017
0.135028	0.024483	0.015003	-0.044246	0.02632	-0.131144
0.131687	0.044804	0.017682	-0.056397	0.031203	-0.119455
0.125294	0.060162	0.013058	-0.048894	0.020514	-0.107522
0.111373	0.066079	0.011401	-0.051731	0.021253	-0.0883
0.10088	0.063009	0.006994	-0.059661	0.007319	-0.06971
0.077094	0.055727	-0.002583	-0.063168	0.002068	-0.05462
0.055358	0.052856	-0.007138	-0.067402	-0.001596	-0.039755
0.028912	0.044351	-0.00955	-0.070109	6.6e-05	-0.032475
0.011133	0.039404	-0.017799	-0.081421	0.001217	-0.030114
-0.022641	0.049472	-0.030794	-0.092063	0.009193	-0.017291
-0.042358	0.050096	-0.037853	-0.099234	0.011447	-0.017746
-0.06909	0.037933	-0.034712	-0.091484	0.023134	-0.025937
-0.094217	0.031432	-0.036679	-0.079886	0.038484	-0.014361
-0.114362	0.021336	-0.029861	-0.076317	0.044876	-0.002628
-0.124126	0.013935	-0.031709	-0.080627	0.045048	0.006548
-0.138148	0.011036	-0.026366	-0.079802	0.036858	0.015648
-0.14551	0.005688	-0.031092	-0.080692	0.018141	0.010567
-0.147067	-0.001942	-0.033559	-0.082435	-0.002774	0.012761
-0.155771	-0.008684	-0.039741	-0.09381	-0.029385	-0.000876
-0.14987	-0.016302	-0.037797	-0.093341	-0.039678	-0.015542
-0.143146	-0.020912	-0.043195	-0.093831	-0.031317	-0.022935
-0.146161	-0.035314	-0.046461	-0.095079	-0.002866	-0.009788
-0.148146	-0.034267	-0.049927	-0.092473	0.016956	-0.009772
-0.145722	-0.03023	-0.046871	-0.091914	0.029494	0.007095
-0.133775	-0.025519	-0.040124	-0.089239	0.033028	0.017239
-0.12612	-0.021403	-0.041434	-0.099209	0.02688	0.030428
-0.108251	-0.016496	-0.035443	-0.102934	0.015468	0.022896
-0.100353	-0.007646	-0.032516	-0.109649	-0.00159	0.011482
-0.083151	0.013446	-0.03399	-0.106346	-0.00947	-0.000282
-0.0673	0.022243	-0.035338	-0.092546	-0.015905	-0.001799
-0.047364	0.038278	-0.036713	-0.080219	0.003744	-0.01013
-0.023464	0.050747	-0.043861	-0.062945	0.032552	-0.017503
-0.003439	0.072901	-0.047523	-0.058785	0.069527	-0.024059
0.010144	0.08351	-0.048187	-0.045957	0.091927	-0.025978
0.025349	0.080938	-0.040651	-0.046647	0.114034	-0.035922
0.024874	0.068847	-0.043244	-0.043512	0.122767	-0.046143
0.029434	0.071018	-0.036402	-0.038834	0.121141	-0.049599
0.036533	0.069889	-0.038153	-0.043775	0.117968	-0.04083
0.045878	0.062083	-0.031064	-0.033576	0.124069	-0.046907
0.045596	0.041999	-0.019563	-0.021686	0.123468	-0.053548
0.04917	0.026879	-0.014646	-0.014806	0.140127	-0.056531
0.051907	0.010508	-0.004707	-0.007452	0.146365	-0.046002
0.045146	-0.004034	-0.003701	0.001668	0.139109	-0.044313
0.039087	-0.013165	-0.007237	0.017753	0.125748	-0.03317
0.029831	-0.020378	-0.005864	0.028245	0.106357	-0.010739
0.030513	-0.027641	-0.011022	0.038009	0.096175	0.003374
0.033732	-0.034771	-0.011861	0.0475	0.071311	0.01645
0.038815	-0.042584	-0.015633	0.057093	0.047982	0.03839
0.047941	-0.046036	-0.009978	0.077551	0.023921	0.046232
0.0568	-0.045146	-0.009474	0.090427	0.002799	0.05616
0.067292	-0.047145	-0.000935	0.099121	-0.001704	0.054464
0.075123	-0.049034	0.017756	0.103526	-0.005584	0.04773
0.081357	-0.048878	0.016057	0.112804	-0.008924	0.047289
0.085105	-0.043395	0.0033	0.108452	-0.022022	0.036082
0.084823	-0.062462	-0.001467	0.100869	-0.035287	0.033865
0.084735	-0.069737	0.015979	0.094627	-0.057319	0.03182
0.080106	-0.065035	0.012056	0.098555	-0.05745	0.024067
0.078643	-0.05409	0.009406	0.104293	-0.045072	0.02278
0.074553	-0.031936	0.009446	0.102571	-0.047845	0.020542
0.065357	-0.021522	0.018348	0.09355	-0.047582	0.015765
0.061737	-0.014079	0.017322	0.092965	-0.058004	0.021861
0.062742	-0.012123	0.008458	0.081565	-0.060259	0.019429
0.05568	-0.018411	0.007498	0.08371	-0.063766	0.020075
0.045418	-0.014985	0.004134	0.086375	-0.069907	0.02045
0.031553	-0.024502	0.011743	0.084987	-0.064065	0.024005
0.01168	-0.02459	0.024314	0.079873	-0.063049	0.025697
-0.003786	-0.01576	0.026745	0.069739	-0.049356	0.021677
-0.014269	-0.001468	0.030676	0.062551	-0.040522	0.01378
-0.022269	-0.004231	0.022465	0.047004	-0.020548	0.017014
-0.033454	-0.011529	0.007745	0.040377	-0.003485	0.013888
-0.036943	-0.018224	0.001783	0.031543	0.012054	0.015866
-0.051733	-0.025385	0.000755	0.022811	0.012222	0.017259
-0.064413	-0.026611	-0.003339	0.003122	0.026742	0.022959
-0.066871	-0.017004	-0.005359	-0.004077	0.026571	0.02845
-0.073959	-0.012272	0.002004	-0.019501	0.018326	0.022783
-0.07894	-0.015753	0.005107	-0.034825	0.01017	0.020538
-0.079949	-0.01298	0.001663	-0.038395	0.007992	0.021875
-0.082819	-0.005278	0.000387	-0.035352	0.017617	0.025942
-0.084729	-0.002194	0.006536	-0.036058	0.02599	0.037598
-0.078855	0.000348	0.01	-0.041911	0.037208	0.0265
-0.080355	0.006155	0.009935	-0.045363	0.047795	0.03433
-0.088884	-0.002174	0.013798	-0.050008	0.059084	0.032644
-0.090252	-0.009796	0.009966	-0.058667	0.058679	0.019257
-0.086287	-0.025776	-0.000905	-0.063088	0.056912	0.015993
-0.081296	-0.040197	-0.016184	-0.068175	0.057458	0.016787
-0.073386	-0.051214	-0.016364	-0.073735	0.067548	0.012208
-0.055883	-0.059695	-0.018139	-0.08213	0.077634	0.011836
-0.030769	-0.056332	-0.026657	-0.092874	0.097561	-0.000666
-0.002862	-0.054846	-0.022877	-0.090967	0.113643	0.012235
0.002431	-0.045402	0.002387	-0.091264	0.121922	0.010411
-0.011112	-0.043962	0.014584	-0.09714	0.110792	0.012764
-0.030687	-0.029099	0.019515	-0.106125	0.088234	0.005508
-0.028691	-0.03832	0.010449	-0.124897	0.063137	-0.007419
-0.023203	-0.046765	0.002792	-0.132927	0.038115	-0.004975
-0.016277	-0.043245	-0.000769	-0.129166	0.020701	-0.005762
-0.021962	-0.036221	-0.004665	-0.125483	0.035642	-0.004299
-0.015375	-0.029243	-0.011471	-0.118872	0.058032	-0.003803
0.007121	-0.018871	-0.017504	-0.112333	0.084156	0.003038
0.021379	-0.001654	-0.013586	-0.118441	0.092655	0.000246
0.03033	0.02005	-0.009834	-0.121472	0.106602	0.003746
0.032551	0.041693	-0.003928	-0.131282	0.102315	-0.019745
0.02238	0.067763	0.014268	-0.144846	0.05714	-0.019868
0.011331	0.07689	0.027614	-0.161501	0.019439	-0.004501
0.009069	0.074644	0.037648	-0.178135	0.015988	-0.007122
0.011361	0.068961	0.0465	-0.172635	0.028843	-0.00708
0.012367	0.060648	0.046088	-0.163639	0.035951	0.038334
0.002644	0.058862	0.05364	-0.15204	0.083908	0.052959
0.004115	0.063683	0.054848	-0.142971	0.127729	0.035907
0.002761	0.068067	0.045279	-0.147644	0.113918	0.044716
-0.003986	0.062313	0.044518	-0.159442	0.082986	0.038976
-0.004281	0.05874	0.035668	-0.149144	0.048632	0.030222
0.002147	0.044031	0.036151	-0.14185	0.030723	0.014747
0.010733	0.047299	0.034703	-0.130693	0.019362	0.006202
0.016317	0.06688	0.034323	-0.106442	0.039074	-0.004667
0.024225	0.07127	0.0442	-0.095964	0.055244	-0.038445
0.025525	0.075345	0.046853	-0.088472	0.049582	-0.037312
0.02746	0.073018	0.049778	-0.085286	0.025632	-0.025661
0.03525	0.068366	0.039183	-0.073706	0.017369	-0.014705
0.044849	0.055233	0.029509	-0.059414	0.016212	-0.006399
0.045515	0.05505	0.024719	-0.039281	0.017841	-0.003844
0.045726	0.05184	0.017669	-0.010377	0.019931	-0.007528
0.05194	0.042071	0.014925	0.003751	0.027424	-0.008358
0.061414	0.030891	0.001809	0.016867	0.026176	-0.027523
0.061656	0.026283	0.000525	0.02484	0.016215	-0.048381
0.050784	0.038426	0.001495	0.023932	0.000161	-0.051053
0.04054	0.05715	-0.005055	0.01325	-0.024868	-0.068942
0.033668	0.073024	-0.014388	0.010044	-0.031052	-0.070445
0.025688	0.075756	-0.017578	0.013082	-0.020573	-0.060862
0.024128	0.064381	-0.024672	0.016752	-0.000971	-0.071513
0.027197	0.030637	-0.02436	0.028527	0.019602	-0.081478
0.019812	0.022081	-0.023908	0.030469	0.018377	-0.098185
0.006976	0.020945	-0.025778	0.020615	-0.008119	-0.107191
-0.009417	0.014067	-0.030551	0.019151	-0.031913	-0.084812
-0.023775	-0.00367	-0.030898	0.0054	-0.043939	-0.101224
-0.041812	-0.028225	-0.032104	0.004053	-0.040044	-0.1011
-0.052379	-0.05008	-0.033508	0.023642	-0.024587	-0.10337
-0.067603	-0.053624	-0.032484	0.037439	-0.021694	-0.115036
-0.071508	-0.045324	-0.035262	0.043982	-0.027568	-0.115537
-0.084531	-0.028912	-0.034492	0.025314	-0.043614	-0.115584
-0.102262	-0.011479	-0.032027	0.004009	-0.057476	-0.114689
-0.102682	-0.028542	-0.042573	-0.010384	-0.057567	-0.114848
-0.103233	-0.057906	-0.036204	-0.01155	-0.033717	-0.106429
-0.109894	-0.075792	-0.02935	-0.025816	-0.009441	-0.111491
-0.11304	-0.080809	-0.029959	-0.043905	-0.002193	-0.125766
-0.103261	-0.071732	-0.02701	-0.051554	-0.001022	-0.135972
-0.102006	-0.065133	-0.023364	-0.071126	-0.018035	-0.127277
-0.093672	-0.052314	-0.03119	-0.063067	-0.01366	-0.118422
-0.089715	-0.048291	-0.026432	-0.056459	-0.019269	-0.1063
-0.085092	-0.059663	-0.019197	-0.056291	-0.021033	-0.095217
-0.084584	-0.072934	-0.016302	-0.051589	-0.018887	-0.087099
-0.088727	-0.073152	-0.013672	-0.042565	-0.009873	-0.071845
-0.092611	-0.0692	-0.014823	-0.037683	0.005195	-0.058094
-0.09533	-0.05034	-0.012505	-0.039563	0.023403	-0.056633
-0.094965	-0.033075	-0.011491	-0.035987	0.041085	-0.057225
-0.091621	-0.025569	-0.010161	-0.038759	0.053986	-0.054293
-0.088209	-0.027716	-0.013673	-0.033132	0.071598	-0.055445
-0.074299	-0.025694	-0.022154	-0.02226	0.072266	-0.052681
-0.060424	-0.035083	-0.031233	-0.012574	0.061159	-0.051191
-0.04455	-0.016511	-0.035557	-8.2e-05	0.038276	-0.064551
-0.035836	0.000952	-0.043578	0.015952	0.005986	-0.065204
-0.029151	0.021562	-0.030452	0.02365	-0.02199	-0.070244
-0.022321	0.030976	-0.025721	0.027713	-0.042615	-0.064599
-0.012213	0.039984	-0.019933	0.041661	-0.053097	-0.062504
0.000818	0.033457	-0.008629	0.054332	-0.065766	-0.054018
0.001064	0.024833	-0.0001	0.075269	-0.077098	-0.039749
0.006099	0.016716	0.003592	0.083382	-0.066955	-0.045191
0.015315	0.018794	0.01102	0.081551	-0.057076	-0.039912
0.021088	0.012332	0.000367	0.081809	-0.05986	-0.039505
0.033518	0.009943	0.00785	0.09564	-0.074449	-0.040021
0.049886	0.013595	0.006529	0.106563	-0.092847	-0.052015
0.052596	0.022987	0.008612	0.112537	-0.111383	-0.051707
0.059094	0.034781	0.021627	0.113973	-0.129896	-0.044456
0.063701	0.043488	0.011491	0.106193	-0.130202	-0.047699
0.06974	0.049389	0.021836	0.103174	-0.12855	-0.047762
0.071578	0.048574	0.015607	0.089534	-0.12659	-0.036391
0.068516	0.052948	0.014443	0.070887	-0.129578	-0.032208
0.061113	0.056753	0.022008	0.059931	-0.119227	-0.020539
0.054562	0.059063	0.020891	0.062721	-0.109388	-0.010113
0.052441	0.059084	0.012565	0.069923	-0.105891	-0.00614
0.060611	0.064786	0.008618	0.080003	-0.097787	-0.006438
0.063473	0.056777	0.004041	0.078304	-0.090161	-0.00699
0.068684	0.060426	0.008083	0.070775	-0.080906	-0.011913
0.063497	0.050379	0.008556	0.069734	-0.068608	-0.018634
0.063104	0.055321	0.003181	0.049263	-0.051716	-0.01097
0.05823	0.0545	0.012442	0.048017	-0.047847	-0.020333
0.048512	0.058582	0.015178	0.034763	-0.048825	-0.022863
0.040089	0.048681	0.026908	0.041104	-0.05468	-0.03155
0.035648	0.042009	0.017647	0.035566	-0.052284	-0.039407
0.028813	0.023893	0.020114	0.019583	-0.045279	-0.045702
0.025083	0.008736	0.015275	0.012623	-0.038738	-0.04467
0.019557	0.015706	0.010818	0.012649	-0.042152	-0.042151
0.019964	0.025589	0.003424	0.012012	-0.05119	-0.053502
0.014959	0.024099	0.009144	0.031705	-0.048202	-0.049828
0.020267	0.017928	0.001213	0.044697	-0.042076	-0.054323
0.021945	0.015629	0.007733	0.040124	-0.04745	-0.068568
0.015784	0.017196	0.014143	0.031464	-0.065736	-0.079944
0.015644	0.022219	0.016965	0.019823	-0.090975	-0.077104
0.012855	0.030769	0.015448	0.018783	-0.090501	-0.08081
0.007794	0.030462	0.025748	0.00928	-0.074362	-0.058214
0.008061	0.026726	0.020266	0.003043	-0.060373	-0.065707
0.01209	0.019949	0.016361	0.01125	-0.052221	-0.083348
0.01188	0.017019	0.010873	0.017589	-0.039505	-0.074548
0.010487	0.024563	0.005916	0.025945	-0.039099	-0.07835
0.018802	0.040811	0.003823	0.033446	-0.045921	-0.096416
0.020616	0.055718	0.003878	0.058107	-0.0597	-0.097261
0.029803	0.062997	-0.003122	0.071729	-0.064411	-0.09109
0.044141	0.068575	-0.003451	0.06714	-0.065999	-0.082249
0.047617	0.066011	-0.007306	0.043767	-0.080648	-0.070829
0.056419	0.061522	-0.015325	0.023035	-0.076551	-0.061692
0.061731	0.059097	-0.013126	0.02703	-0.061111	-0.060133
0.07214	0.046092	-0.017977	0.04065	-0.050154	-0.047628
0.081955	0.035099	-0.020631	0.064763	-0.041612	-0.057618
0.078567	0.016981	-0.013847	0.080389	-0.044048	-0.058023
0.075986	-0.001361	-0.007024	0.097207	-0.049441	-0.05673
0.075983	-0.005568	-0.019216	0.100273	-0.041874	-0.060854
0.080496	-0.027873	-0.013838	0.099694	-0.04327	-0.063406
0.072672	-0.037484	-0.009552	0.079986	-0.04353	-0.051635
0.065247	-0.055744	-0.008209	0.05518	-0.044349	-0.058451
0.059929	-0.066696	-0.001931	0.028102	-0.049102	-0.050605
0.058208	-0.068907	0.004906	0.019641	-0.049813	-0.047248
0.062043	-0.071853	0.014593	0.022267	-0.035401	-0.041418
0.053867	-0.080357	0.015377	0.043192	-0.016766	-0.032772
0.059185	-0.091834	0.011786	0.063249	0.010232	-0.035417
0.052401	-0.099746	0.018749	0.079053	0.027422	-0.02823
0.056976	-0.103168	0.01828	0.087804	0.033118	-0.039482
0.058963	-0.108385	0.010333	0.062254	0.01575	-0.051756
0.062145	-0.098576	0.006369	0.046722	-0.002666	-0.063507
0.056651	-0.092455	0.002834	0.034434	-0.013048	-0.069531
0.046478	-0.074998	-0.001783	0.031736	-0.002927	-0.066762
0.038696	-0.06256	0.000848	0.028015	0.023248	-0.069817
0.025213	-0.062447	0.002768	0.026694	0.046432	-0.068821
0.020884	-0.061844	0.001799	0.025616	0.06725	-0.0658
0.005299	-0.059542	0.009388	0.017881	0.0724	-0.070149
-0.000385	-0.057522	0.017767	0.011338	0.070712	-0.076704
-0.003259	-0.053657	0.016719	0.00473	0.067446	-0.066717
-0.010823	-0.057059	0.022985	0.002494	0.071241	-0.072801
-0.01417	-0.059845	0.02926	0.000549	0.076415	-0.079841
-0.027908	-0.066068	0.031804	-0.007143	0.085223	-0.080053
-0.036564	-0.066406	0.041558	-0.017299	0.099679	-0.085553
-0.046715	-0.06669	0.04107	-0.02418	0.110305	-0.093181
-0.04537	-0.068419	0.040606	-0.029246	0.114202	-0.101537
-0.047802	-0.069919	0.02909	-0.039836	0.124469	-0.106504
-0.048863	-0.062377	0.020262	-0.049988	0.129822	-0.120027
-0.043536	-0.045888	0.024364	-0.063172	0.135347	-0.120975
-0.04144	-0.038653	0.026265	-0.072468	0.137915	-0.124134
-0.033587	-0.033612	0.024547	-0.063877	0.148418	-0.116525
-0.027336	-0.03422	0.034487	-0.069456	0.14283	-0.102369
-0.033196	-0.023843	0.032586	-0.080002	0.118587	-0.091925
-0.036818	-0.009398	0.029996	-0.088232	0.11063	-0.084465
-0.030519	-0.00343	0.030551	-0.096203	0.115031	-0.065945
-0.03586	0.003141	0.017231	-0.10197	0.120884	-0.055308
-0.034881	0.002425	0.009817	-0.111665	0.104985	-0.038173
-0.030401	-0.001723	-0.00129	-0.125658	0.089191	-0.025718
-0.019319	0.003276	-0.005338	-0.137686	0.086593	-0.029634
-0.01765	0.012416	-0.008171	-0.148148	0.087106	-0.032543
-0.014314	0.0296	-0.005255	-0.162296	0.099192	-0.036127
-0.012913	0.047889	-0.012425	-0.178752	0.109272	-0.04217
-0.001309	0.053886	-0.01627	-0.193977	0.109267	-0.044616
-0.001249	0.053848	-0.015589	-0.202096	0.112248	-0.046246
0.006435	0.054687	-0.02194	-0.20639	0.115291	-0.036078
0.004776	0.052685	-0.023889	-0.207888	0.120426	-0.029285
0.009158	0.054098	-0.030861	-0.21519	0.133427	-0.025401
0.009289	0.0586	-0.026241	-0.220565	0.138254	-0.009557
0.005987	0.058642	-0.027325	-0.217542	0.128956	-0.006221
0.002162	0.057258	-0.019592	-0.222344	0.12019	-0.004384
-0.001356	0.053478	-0.012411	-0.225717	0.108425	0.004075
-0.005922	0.053799	-0.004378	-0.236081	0.103958	0.007013
-0.00949	0.051667	0.005305	-0.247008	0.105356	0.008961
-0.011428	0.041922	0.011603	-0.250422	0.108951	0.005826
-0.011612	0.034817	0.014374	-0.251568	0.108938	0.002607
-0.021105	0.022658	0.008453	-0.254848	0.105986	0.002197
-0.020357	0.012845	0.013428	-0.253438	0.096343	-0.003111
-0.023054	0.012784	0.011627	-0.265391	0.091585	-0.014493
-0.017212	0.006375	0.012014	-0.261499	0.084502	-0.008596
-0.018362	0.020667	0.014232	-0.25513	0.075718	-0.00241
-0.007815	0.037663	0.015785	-0.246969	0.070284	0.001915
-0.001052	0.048798	0.013742	-0.234878	0.058823	0.006529
0.005504	0.053955	0.015438	-0.22436	0.055228	0.02433
0.006743	0.048667	0.009275	-0.209809	0.041922	0.037411
0.012857	0.038819	0.010505	-0.196401	0.017432	0.050777
0.016021	0.031771	0.005875	-0.185369	2.8e-05	0.058306
0.019881	0.031101	-0.002446	-0.166556	-0.029825	0.06739
0.018202	0.023283	-0.004245	-0.148126	-0.045843	0.070802
0.014929	0.016895	-0.00463	-0.130138	-0.059501	0.075204
0.009915	0.001623	-0.001255	-0.113953	-0.071482	0.07901
0.001853	-0.015239	0.004339	-0.107499	-0.073806	0.078378
-0.007682	-0.029974	0.006263	-0.095941	-0.067127	0.087502
-0.01715	-0.03522	0.007327	-0.085773	-0.067671	0.076645
-0.029017	-0.041719	0.004642	-0.086479	-0.06581	0.073783
-0.031481	-0.041578	-0.000344	-0.073127	-0.050731	0.065843
-0.031228	-0.038184	0.000319	-0.062036	-0.038395	0.064832
-0.02818	-0.037551	-0.007804	-0.050167	-0.022325	0.064349
-0.028236	-0.033572	-0.000835	-0.036811	-0.011355	0.066066
-0.035396	-0.021304	0.000834	-0.025568	0.003877	0.064946
-0.035247	-0.011526	-0.006097	-0.014959	0.015998	0.060484
-0.028588	-0.009255	-0.008463	-0.004493	0.014144	0.061441
-0.027712	-0.008504	-0.004223	-0.005136	0.018734	0.068856
-0.017151	-0.008186	-0.014364	0.00258	0.013	0.058519
-0.012338	-0.00847	-0.017966	-0.001856	0.015887	0.039248
-0.001763	-0.02103	-0.016314	-0.010043	0.005664	0.02506
0.005811	-0.015223	-0.022149	-0.011623	-0.000921	0.009541
0.004069	-0.014759	-0.024406	-0.004585	-0.006045	0.000767
0.006308	-0.00682	-0.02967	0.001933	-0.009061	-0.011631
0.019556	0.000413	-0.043645	0.007474	-0.007733	-0.014528
0.030642	0.013759	-0.046126	0.016314	-0.001372	-0.007703
0.043956	0.02915	-0.047847	0.01489	-0.003865	-0.002295
0.055637	0.027542	-0.048555	0.009139	-0.005763	-0.006167
0.05914	0.00965	-0.04389	0.010885	-0.021454	-0.000909
0.056303	-0.00126	-0.048687	0.003935	-0.02907	-0.008298
0.058495	-0.009327	-0.052774	-0.001319	-0.04222	-0.007898
0.063461	-0.010604	-0.04757	-0.004733	-0.044774	-0.008715
0.064566	-0.011649	-0.041771	-0.002852	-0.035997	-0.003365
0.058942	-0.011693	-0.03029	0.000113	-0.021779	0.000887
0.050954	-0.01455	-0.016654	0.008562	-0.005159	0.004359
0.042082	-0.020971	-0.003758	0.006345	0.026878	0.010416
0.035361	-0.025907	0.004725	0.009594	0.040711	0.015462
0.022884	-0.026266	0.009425	0.011998	0.057979	0.015117
0.022136	-0.019238	0.018406	0.010027	0.056782	0.010169
0.02577	-0.008391	0.019255	0.009707	0.049475	-0.00298
0.020611	0.005046	0.012596	-0.003102	0.037637	-0.008142
0.027044	0.022911	0.016083	-0.002083	0.027162	-0.01065
0.028283	0.036489	0.021757	0.006013	0.019616	-0.004987
0.031224	0.057097	0.024547	0.01054	0.020081	-0.002392
0.033422	0.072326	0.026044	0.020007	0.035102	0.004668
0.043676	0.079012	0.017652	0.030216	0.03107	0.009158
0.042141	0.08139	0.026037	0.028383	0.033343	0.004182
0.053181	0.084665	0.023721	0.015299	0.02589	-0.008006
0.059934	0.089349	0.025789	0.002162	0.005971	-0.009133
0.060163	0.089558	0.022111	-0.008497	-0.005994	-0.014638
0.056004	0.086708	0.014864	-0.005975	-0.014214	-0.020067
0.058383	0.08423	0.004826	0.003333	-0.007652	-0.00965
0.063445	0.079394	0.002872	0.010265	0.000466	0.002064
0.060283	0.07305	0.006006	0.021025	0.00563	0.002307
0.062274	0.066038	-0.011037	0.02495	0.004251	0.01048
0.056674	0.058262	-0.004777	0.026971	0.003445	0.004999
0.053751	0.046469	0.000895	0.028747	-0.003209	0.01053
0.040374	0.025817	8.4e-05	0.023382	-0.010606	0.012226
0.041592	0.017904	0.00801	0.024617	-0.023047	0.01182
0.038169	0.006288	0.010827	0.030701	-0.027354	0.020062
0.04047	0.001216	0.011347	0.042939	-0.020752	0.014528
0.033132	0.000204	0.014523	0.046268	-0.017764	0.017492
0.034437	0.000659	0.012558	0.045398	-0.00907	0.018268
0.025534	0.010296	0.01758	0.050333	-0.002018	0.022409
0.020818	0.009773	0.011754	0.049646	0.001824	0.021768
0.017578	0.014587	0.011613	0.046645	-0.011975	0.031612
0.012962	0.024563	0.012846	0.043982	-0.029688	0.033102
0.008374	0.031457	0.01199	0.036302	-0.056217	0.038931
0.007594	0.037983	0.006191	0.034879	-0.060975	0.038928
0.005178	0.033529	0.008551	0.027859	-0.060557	0.039959
0.003687	0.031793	0.005136	0.01994	-0.063794	0.03135
-0.000717	0.023519	0.001798	0.010043	-0.053903	0.026825
0.004417	0.018807	0.00431	0.000518	-0.053477	0.020739
0.006162	0.024388	0.008873	-0.006641	-0.042152	0.018218
0.002889	0.030085	0.013398	-0.013444	-0.036064	0.012179
-0.004515	0.037221	0.017948	-0.02973	-0.035189	0.015514
-0.006669	0.040459	0.021951	-0.033953	-0.030163	0.010603
-0.001998	0.041863	0.012307	-0.036072	-0.029549	0.010918
0.00693	0.031622	0.006465	-0.029424	-0.024663	0.01083
0.017443	0.025863	0.003472	-0.035893	-0.030718	0.015548
0.041702	0.012069	0.013029	-0.052124	-0.025936	0.01266
0.060155	-0.007437	0.019701	-0.041265	-0.02984	0.013932
0.071718	-0.015274	0.022614	-0.030245	-0.028541	0.014924
0.073252	-0.017112	0.026123	-0.020667	-0.028565	0.015655
0.069153	-0.001262	0.03152	-0.018202	-0.026252	0.012258
0.060518	0.008731	0.02309	-0.006061	-0.015822	0.003724
0.059298	0.000533	0.019913	-0.002932	-0.003815	0.010775
0.064126	-0.018501	0.009471	-0.016545	-0.007278	6.6e-05
0.08159	-0.03371	0.004683	-0.058119	-0.026918	-0.009084
0.091272	-0.039721	0.008966	-0.07057	-0.031891	0.000277
0.109426	-0.02644	0.007183	-0.057956	-0.025738	0.010429
0.116741	-0.013213	0.003023	-0.039127	-0.005546	0.014349
0.106364	-0.015849	0.005319	-0.01739	0.016305	0.021595
0.09617	-0.019434	0.003155	-0.008391	0.03088	0.021107
0.086662	-0.028839	0.000124	-0.010974	0.038928	0.031774
0.081593	-0.023619	-0.003341	-0.032128	0.060443	0.028847
0.080645	-0.017726	-0.002721	-0.049113	0.06692	0.009474
0.072501	-0.000275	-0.005441	-0.050762	0.057368	0.012779
0.055536	0.009204	-0.008386	-0.04569	0.061619	0.022496
0.044942	-0.000241	-0.00261	-0.034228	0.072483	0.017386
0.050311	-0.01997	0.000877	-0.03065	0.067629	0.015085
0.047673	-0.027448	0.005083	-0.033111	0.072624	0.029236
0.032079	-0.021909	-0.001698	-0.026373	0.08072	0.037086
0.011213	-0.014658	-0.011267	-0.021112	0.09893	0.032804
-0.008567	-0.007553	-0.019201	-0.001334	0.124176	0.056317
-0.02648	-0.032804	-0.013516	0.010402	0.15365	0.070364
-0.056859	-0.054158	-0.014261	0.017622	0.158589	0.065171
-0.082997	-0.075228	-0.008984	0.026849	0.12898	0.059049
-0.092359	-0.097027	-0.022387	0.041873	0.106685	0.063827
-0.1017	-0.111816	-0.030744	0.046566	0.078052	0.056075
-0.115207	-0.120891	-0.048686	0.029281	0.063527	0.038026
-0.121918	-0.121127	-0.067576	-0.003703	0.061783	0.043237
-0.108727	-0.100104	-0.065053	-0.027632	0.066921	0.062333
-0.084484	-0.086328	-0.075041	-0.036864	0.088082	0.071745
-0.067826	-0.100143	-0.073561	-0.02473	0.10842	0.065935
-0.044974	-0.122981	-0.079566	-0.007498	0.118451	0.051834
-0.019047	-0.132064	-0.091902	-0.004531	0.12259	0.039888
-0.007384	-0.123105	-0.099149	-0.016042	0.113562	0.035924
-0.000597	-0.10311	-0.105511	-0.03407	0.087552	0.043899
0.000966	-0.090826	-0.105573	-0.065605	0.05679	0.045673
-0.004104	-0.07647	-0.103164	-0.094466	-0.02052	0.018976
-0.007227	-0.074076	-0.107602	-0.094234	-0.056578	-0.044292
-0.01743	-0.055363	-0.097569	-0.113017	-0.101869	0.011051
-0.025679	-0.021907	-0.086003	-0.139074	-0.114246	0.039001
-0.040642	0.011784	-0.085717	-0.130106	-0.060303	-0.000905
-0.040323	0.04231	-0.079388	-0.096177	0.028339	0.020777
-0.037704	0.063152	-0.071772	-0.088262	0.094224	0.028404
-0.032793	0.069088	-0.059611	-0.136153	0.073356	0.000329
-0.022504	0.064305	-0.040392	-0.174796	0.055852	0.009341
-0.023251	0.063516	-0.018436	-0.20415	0.054338	-0.009171
-0.030902	0.052029	0.002319	-0.214227	0.049208	-0.018404
-0.032034	0.04424	0.018394	-0.210291	0.062468	-0.020986
-0.032732	0.037387	0.03556	-0.2009	0.090511	-0.026141
-0.037589	0.030266	0.067628	-0.19511	0.111982	-0.031428
-0.052109	0.104059	0.068116	-0.187576	0.125873	-0.03642
-0.060248	0.228063	0.071693	-0.168832	0.140104	-0.035587
-0.080542	0.291976	0.073875	-0.147387	0.149605	-0.034688
-0.075664	0.260851	0.066582	-0.128141	0.141923	-0.035109
-0.068385	0.173118	0.044375	-0.121718	0.138891	-0.045012
-0.058683	0.090529	0.023821	-0.107484	0.127639	-0.060631
-0.060853	0.032742	0.001279	-0.093138	0.113683	-0.06983
-0.068558	-0.001956	-0.021268	-0.080921	0.091477	-0.072044
-0.072828	-0.03094	-0.0308	-0.074681	0.064662	-0.085762
-0.075603	-0.042639	-0.050362	-0.065154	0.045794	-0.104179
-0.076157	-0.061416	-0.053909	-0.063698	0.029169	-0.109043
-0.085646	-0.065332	-0.058508	-0.056032	0.011724	-0.114826
-0.09032	-0.056041	-0.055347	-0.024737	-0.007333	-0.117629
-0.088322	-0.01323	-0.046771	0.005607	-0.017171	-0.121935
-0.082976	0.033296	-0.041769	0.033037	-0.041094	-0.135676
-0.071087	0.054299	-0.041975	0.048068	-0.057141	-0.130055
-0.069456	0.048648	-0.038606	0.048173	-0.058348	-0.145078
-0.063729	0.038438	-0.041897	0.049105	-0.06292	-0.140032
-0.062082	0.020306	-0.049275	0.059572	-0.061517	-0.141564
-0.055108	-0.002308	-0.058132	0.073306	-0.064942	-0.133076
-0.052205	-0.013775	-0.055225	0.081337	-0.067424	-0.133459
-0.035171	-0.016581	-0.047087	0.079579	-0.069607	-0.125884
-0.022407	-0.019911	-0.043384	0.086427	-0.05853	-0.116486
-0.023498	-0.022118	-0.031906	0.089409	-0.053882	-0.100355
-0.025176	-0.017636	-0.019196	0.094265	-0.052135	-0.102062
-0.016525	-0.012611	-0.015957	0.095821	-0.056775	-0.091192
-0.016674	-0.007165	-0.0028	0.091677	-0.067896	-0.086853
-0.01021	0.000404	0.008024	0.078497	-0.087631	-0.072526
-0.002245	0.008639	0.016585	0.057426	-0.107159	-0.066332
0.006065	-0.006435	0.026858	0.039906	-0.116947	-0.060955
0.024824	-0.011513	0.03636	0.035258	-0.121362	-0.050501
0.037071	-0.016518	0.040636	0.037727	-0.122669	-0.036462
0.052979	-0.014161	0.057762	0.038874	-0.114336	-0.03049
0.060688	-0.018179	0.070222	0.042012	-0.107148	-0.021409
0.071329	-0.014997	0.075665	0.036438	-0.101912	-0.016686
0.086686	-0.018444	0.082834	0.021331	-0.091284	-0.013497
0.106747	-0.022616	0.089959	0.010387	-0.083268	-0.006438
0.118199	-0.03145	0.103365	0.006674	-0.084451	-0.001269
0.117784	-0.026792	0.108228	0.004361	-0.08465	0.002478
0.106079	-0.016641	0.105374	0.007196	-0.080896	-0.000224
0.097479	-0.009046	0.110361	0.01852	-0.073792	0.000871
0.097471	0.0057	0.10001	0.014492	-0.067041	-2.2e-05
0.09046	0.015613	0.092643	0.0131	-0.047628	0.006234
0.076745	0.032095	0.088395	0.007625	-0.036023	-0.001977
0.070794	0.040883	0.085643	0.006473	-0.03065	0.016147
0.065512	0.045641	0.075711	-0.013725	-0.023625	0.0366
0.063007	0.040615	0.059423	-0.028869	-0.006441	0.029495
0.051652	0.033517	0.045199	-0.023944	-0.003699	0.033044
0.036597	0.033236	0.045227	-0.009603	-0.016796	0.036059
0.027405	0.034381	0.037853	-0.004503	-0.026165	0.029189
0.012167	0.027095	0.031801	-0.006069	-0.032588	0.026928
-0.000843	0.019138	0.022122	-0.022807	-0.041887	0.01983
-0.002182	0.010367	0.013249	-0.032648	-0.034354	0.026517
-0.009203	0.011976	0.010011	-0.042169	-0.023265	0.022006
-0.00378	0.011684	-0.004712	-0.03659	-0.016572	0.025657
-0.005628	0.015146	-0.015937	-0.027965	-0.009183	0.024226
-0.008242	0.020901	-0.013353	-0.02829	-0.006082	0.030485
-0.010247	0.016331	-0.014917	-0.031251	-0.003784	0.026497
-0.013512	0.017459	-0.024456	-0.030689	-0.005145	0.02705
-0.016946	0.009954	-0.026578	-0.019897	0.001484	0.025662
-0.020247	0.00903	-0.026552	-0.022229	-0.000643	0.026
-0.016167	0.010902	-0.026444	-0.015603	0.002214	0.019123
-0.00483	0.008224	-0.026125	-0.018325	0.006432	0.009053
0.000726	0.008599	-0.019991	-0.013162	0.012697	0.0057
-0.010381	0.01285	-0.013181	-0.01311	0.015971	0.004358
-0.01779	0.013254	-0.008954	-0.004876	0.01838	-0.001943
-0.025258	0.001199	-0.010125	0.004769	0.017108	-0.005998
-0.020918	-0.007387	-0.006662	0.002697	0.026663	-0.005978
-0.016517	-0.020361	-0.012468	-0.003102	0.024523	-0.001066
-0.005441	-0.031207	-0.021083	-0.00639	0.028034	-0.006439
0.005143	-0.032605	-0.038545	-0.006768	0.038668	-0.00899
0.017885	-0.03543	-0.058235	-0.012	0.032429	-0.018904
0.022473	-0.038669	-0.067216	-0.016854	0.034901	-0.013779
0.022694	-0.039598	-0.07635	-0.016435	0.040858	-0.013057
0.016289	-0.037359	-0.066633	-0.014697	0.054003	-0.005156
0.013484	-0.036739	-0.047238	-0.016193	0.06549	-0.010416
0.004971	-0.043637	-0.045604	-0.019253	0.070303	-0.009155
-0.001856	-0.041883	-0.034984	-0.026588	0.061921	-0.010093
-0.005792	-0.048981	-0.026884	-0.030297	0.059295	-0.009508
0.00131	-0.057688	-0.022127	-0.034031	0.05225	-0.006805
0.000655	-0.057406	-0.022533	-0.02148	0.051646	-0.013294
-0.000554	-0.048156	-0.019404	0.000202	0.059753	-0.00589
0.001035	-0.045951	-0.014791	0.007845	0.06989	-0.016991
-0.00224	-0.039045	-0.020398	0.007071	0.070602	-0.01218
-0.003234	-0.026868	-0.018732	-0.001143	0.075602	0.000454
0.002389	-0.014733	-0.019892	-0.006734	0.082592	-0.00148
0.004545	0.001861	-0.024628	-0.016164	0.065663	0.003712
0.003574	0.004655	-0.026173	-0.020361	0.065594	0.031244
-0.00395	0.004683	-0.026136	-0.026169	0.062526	0.037964
-0.004741	0.006745	-0.031699	-0.021121	0.053725	0.046681
-0.012869	0.007621	-0.027042	-0.022632	0.053017	0.05484
-0.01435	0.008346	-0.028808	-0.020569	0.040427	0.040317
-0.011616	-0.001786	-0.028925	-0.012127	0.032167	0.033101
-0.005165	-0.010493	-0.030436	-0.001913	0.049262	0.043919
-0.002937	-0.008813	-0.030006	-0.010062	0.059622	0.064882
-0.009491	-0.00685	-0.028299	-0.042627	0.05136	0.049706
-0.0159	0.003857	-0.030433	-0.063309	0.00365	0.073272
-0.02475	0.005258	-0.029012	-0.069739	-0.000878	0.087261
-0.027702	0.013846	-0.0263	-0.082992	0.01923	0.083899
-0.027239	0.015951	-0.014165	-0.101192	0.038648	0.10303
-0.027518	0.015039	-0.006312	-0.084555	0.043297	0.098743
-0.038479	0.022243	-0.004287	-0.04833	0.061751	0.095681
-0.036307	0.027759	-0.001337	0.002437	0.058508	0.060225
-0.042177	0.036514	0.012375	0.030705	0.043954	0.046048
-0.03767	0.048667	0.018219	0.016864	0.007496	-0.000515
-0.036691	0.066715	0.026205	0.001065	0.009599	-0.027433
-0.028527	0.075901	0.028524	-0.006307	0.038481	-0.040414
-0.024172	0.074312	0.031704	-0.003387	0.078045	-0.054615
-0.021248	0.073448	0.040819	-0.008014	0.110225	-0.056513
-0.020321	0.076769	0.043539	-0.018874	0.147354	-0.06896
-0.031148	0.07074	0.051664	-0.019507	0.196995	-0.067288
-0.031514	0.067939	0.050691	-0.004927	0.218408	-0.064643
-0.023108	0.058327	0.042043	0.007194	0.216033	-0.05326
-0.018784	0.058915	0.026082	0.014393	0.195609	-0.049938
-0.01531	0.056007	0.021806	0.0157	0.171523	-0.042453
-0.009647	0.05162	0.016114	0.004008	0.150559	-0.030514
-0.003881	0.053791	0.00956	-0.003473	0.136893	-0.012721
0.001858	0.056021	0.001428	-0.010271	0.14429	0.007039
0.004622	0.061251	-0.000354	-0.012618	0.153092	0.023783
0.010167	0.064955	0.002128	-0.00566	0.154559	0.029023
0.006927	0.070049	0.003026	-0.005601	0.142236	0.037197
0.012969	0.068987	0.009874	-0.016116	0.120431	0.03235
0.010118	0.059851	0.01167	-0.020621	0.092139	0.019244
0.014492	0.044631	0.008542	-0.012895	0.064734	0.009526
0.016716	0.037486	0.015434	-0.013213	0.05418	-0.000469
0.010219	0.032497	0.014898	-0.0051	0.058969	0.000535
0.002226	0.028226	0.014997	-0.00054	0.060234	-0.003548
0.000682	0.020863	0.017309	0.009813	0.058799	-0.009482
0.001311	0.013372	0.014474	0.008477	0.050332	-0.016948
-0.000201	0.011666	0.007044	0.01574	0.046517	-0.023205
0.002524	0.009251	0.007506	0.021299	0.028523	-0.024763
0.000227	0.014207	0.00775	0.029614	0.002919	-0.025861
0.002884	0.014692	0.010914	0.023239	-0.030274	-0.027779
0.000404	0.014491	0.011812	0.016895	-0.051608	-0.034707
0.004459	0.014145	0.012721	0.021202	-0.059581	-0.035593
0.002639	0.013097	0.012099	0.026315	-0.065287	-0.041555
-0.001484	0.009175	0.018764	0.036987	-0.065783	-0.039306
-0.0107	0.003077	0.021847	0.048447	-0.080067	-0.040555
-0.014655	0.004858	0.021224	0.038047	-0.096461	-0.042309
-0.012214	-0.004422	0.011975	0.032404	-0.102504	-0.033813
-0.006798	-0.004942	0.007607	0.023852	-0.102665	-0.027
0.000882	-0.001171	-0.007125	0.026107	-0.088148	-0.018693
0.007744	0.006374	-0.011893	0.024778	-0.088132	-0.014001
0.015955	0.013973	-0.013191	0.021989	-0.079437	-0.009161
0.021173	0.01934	-0.021896	0.015617	-0.064311	-0.005621
0.021202	0.029275	-0.014785	0.015936	-0.064593	-0.006669
0.019539	0.025206	-0.012581	0.011693	-0.059106	0.000229
0.015564	0.015954	-0.008123	0.002369	-0.062388	0.006363
0.013227	0.015267	-0.008077	-0.01725	-0.056242	0.01655
0.016644	0.011494	-0.010926	-0.024796	-0.037883	0.010975
0.018433	0.004207	-0.008808	-0.018137	-0.026121	0.020084
0.024534	0.000638	-0.00109	-0.013591	-0.018773	0.026809
0.027807	0.003701	0.004987	-0.014699	-0.002094	0.028259
0.018737	0.011323	0.012358	-0.016409	0.00427	0.026166
0.011643	0.005042	0.017765	-0.021659	0.014841	0.021926
0.009194	0.00726	0.015997	-0.034798	0.02668	0.015438
0.007993	-0.00229	0.017367	-0.05036	0.035464	0.020595
0.00608	-0.011879	0.020997	-0.061437	0.041139	0.023752
0.006478	-0.020912	0.013077	-0.062333	0.044452	0.030017
0.001005	-0.031923	0.006569	-0.058886	0.051961	0.039946
-0.000696	-0.033357	0.002777	-0.057277	0.053479	0.038804
3.5e-05	-0.021621	-0.008564	-0.044697	0.060652	0.03848
0.007136	-0.014887	-0.011206	-0.031593	0.062654	0.048186
0.010611	-0.002897	-0.007463	-0.030483	0.057191	0.045912
0.014725	0.002426	-0.012407	-0.041877	0.053896	0.049692
0.02608	0.008309	-0.008539	-0.038417	0.054156	0.042809
0.024397	0.015715	-0.010521	-0.038237	0.048675	0.050176
0.028878	0.004841	-0.000571	-0.038433	0.051897	0.044215
0.028473	0.00487	0.009299	-0.035828	0.05004	0.043209
0.025117	-0.000261	0.01714	-0.035147	0.051749	0.033291
0.021089	-0.006921	0.017054	-0.032989	0.046844	0.024058
0.019163	-0.016424	0.025035	-0.039571	0.044759	0.01736
0.020302	-0.020121	0.02713	-0.036798	0.044788	0.016593
0.017944	-0.019259	0.026264	-0.036735	0.041793	0.009903
0.025068	-0.017729	0.026878	-0.023672	0.033704	0.007203
0.02283	-0.010829	0.02662	-0.026645	0.025556	0.006343
0.030811	-0.002662	0.027881	-0.020701	0.023171	-0.001504
0.031657	0.013537	0.027581	-0.013372	0.019999	-0.005629
0.035211	0.020973	0.034685	-0.014707	0.015281	-0.011343
0.033489	0.012333	0.036297	-0.009515	0.00906	-0.015417
0.031055	-0.000861	0.035255	-0.007234	0.001352	-0.018859
0.023486	-0.022828	0.023478	-0.002049	-0.005651	-0.02154
0.019622	-0.036745	0.023992	0.003786	-0.007586	-0.02001
0.009267	-0.046143	0.022158	0.008744	-0.011679	-0.0121
0.003124	-0.062069	0.021048	0.016978	-0.002768	-0.017301
-0.003637	-0.072047	0.013922	0.026435	-0.003981	-0.013786
-0.00873	-0.065057	0.009301	0.028719	0.0035	-0.01409
-0.01402	-0.064371	0.006724	0.026589	-0.001319	-0.01372
-0.00974	-0.058029	-0.003993	0.017018	0.0012	-0.007165
-0.005592	-0.050075	-0.006222	0.0091	0.010332	-0.009425
-0.00292	-0.039179	-0.013059	0.009153	0.020265	-0.011519
0.003112	-0.034765	-0.013514	0.009339	0.01787	-0.020054
-0.00252	-0.025686	-0.015034	0.005	0.022086	-0.023597
-0.008359	-0.019345	-0.00359	0.007122	0.019052	-0.024647
-0.00392	-0.011963	-0.007423	0.001934	0.019668	-0.025092
-0.005479	-0.010212	-0.004007	0.005539	0.004259	-0.028087
-0.007676	-0.004904	-0.006468	0.002366	0.007078	-0.022595
-0.005701	-0.006908	-0.001584	0.002247	0.008438	-0.022236
-0.002978	-0.009666	0.001893	-0.000732	0.016374	-0.024216
-0.004643	-0.016685	0.001795	-0.003802	0.013462	-0.023311
-0.004639	-0.013446	0.003078	-0.003849	0.021422	-0.026672
-0.004688	-0.015229	0.003717	-0.001922	0.016347	-0.022656
-0.002479	-0.014027	0.008015	-0.006373	0.01923	-0.024682
-0.006024	-0.011977	0.008677	-0.005781	0.017012	-0.02502
-0.003801	-0.014375	0.013883	-0.013346	0.017702	-0.019678
-0.000639	-0.011744	0.01411	-0.009977	0.013297	-0.015436
-0.006197	-0.010424	0.015136	-0.009433	0.013236	-0.014852
-0.006417	-0.004145	0.009788	-0.0074	0.008069	-0.015624
-0.0075	-0.006512	0.012676	-0.010428	0.007938	-0.017209
-0.005495	-0.004589	0.014254	-0.006124	0.001948	-0.020088
-0.008511	-0.003388	0.010112	-0.013633	-0.002584	-0.015393
-0.007026	0.003605	0.011136	-0.009363	-0.00641	-0.015556
-0.007047	0.005485	0.011573	-0.002784	-0.012479	-0.019354
-0.014249	0.008882	0.007696	-0.004965	-0.004722	-0.021997
-0.017139	0.007157	0.009124	-0.007386	-0.007138	-0.014515
-0.014747	0.011094	0.006268	-0.008893	-0.004526	-0.012931
-0.018232	0.012205	0.0049	-0.008097	-0.004839	-0.015692
-0.015825	0.015356	0.002873	-0.011204	-0.001523	-0.007012
-0.01065	0.01043	0.002437	-0.009558	-0.007	-0.012746
-0.011187	0.010627	-0.001709	-0.012484	-0.006648	-0.009944
-0.013317	0.0095	0.002764	-0.014708	-0.010657	-0.005725
-0.013917	0.009656	-0.004447	-0.014658	-0.013969	-0.004399
-0.01464	0.009175	0.000664	-0.010996	-0.011443	-0.00229
-0.017543	0.006395	-0.004408	-0.013938	-0.019025	0.001085
-0.018231	0.010197	0.000604	-0.009616	-0.018587	0.004616
-0.013828	0.011566	-0.004547	-0.008886	-0.018874	0.006552
-0.010171	0.017355	0.000394	-0.007955	-0.022058	0.000447
-0.005083	0.022278	0.001677	-0.002889	-0.018642	0.003105
-0.001624	0.019943	0.004436	-0.004196	-0.020314	-0.000996
-0.002518	0.020588	0.007809	-0.004815	-0.017612	-0.00301
0.006077	0.023175	0.011207	-0.003354	-0.014895	-0.000671
0.005889	0.022946	0.012415	-0.003334	-0.009265	0.001546
0.005673	0.020463	0.010745	-0.000942	-0.008743	-0.00345
0.001093	0.020259	0.014867	0.002767	-0.005242	-0.004073
0.006791	0.01826	0.010475	0.0056	-0.00676	-0.000285
0.006492	0.009888	0.014119	0.005793	-0.00464	-0.007488
0.002007	0.0088	0.011879	0.006346	-0.006768	-0.001615
-0.000363	0.004731	0.011882	-0.003889	-0.005249	-0.000477
0.00251	0.003374	0.001757	-0.008822	0.00132	-0.006566
0.003151	0.005859	0.005334	-0.010389	0.001441	-0.003129
0.000832	0.006901	0.008886	-0.008915	0.010296	-0.005414
-3.1e-05	0.007143	0.010282	-0.014081	0.008255	-0.004204
-0.000204	0.00218	0.005231	-0.01487	0.00478	-0.003629
-0.006905	0.003239	0.009501	-0.01344	0.007102	-0.00443
-0.005505	0.007022	0.009437	-0.008977	0.01009	-0.009462
-0.007155	0.003557	0.008697	-0.012796	0.005832	-0.004405
-0.001594	-0.003651	0.008753	-0.020047	-0.002833	-0.007357
-0.0075	-0.00116	0.004215	-0.02008	-0.004197	-0.008025
-0.005481	0.001306	0.009113	-0.012297	-0.006234	-0.001322
-0.001301	3.2e-05	0.006039	-0.010832	0.00116	-0.00291
0.002944	0.003919	0.00874	-0.007123	0.007795	-0.005958
0.006392	0.001863	0.004977	-0.005866	0.012273	0.001801
0.009106	0.001315	0.005549	-0.006524	0.015242	-0.000622
0.008909	0.002299	0.008987	-0.00802	0.010214	0.001332
0.010853	0.000334	0.011746	-0.010758	0.006589	-0.004713
0.004842	0.000666	0.010044	-0.009296	0.007378	-0.005496
0.006071	-0.002706	0.00918	-0.008725	0.003835	0.0002
0.005782	-0.008196	0.011969	-0.010874	0.014103	-0.001521
0.003353	-0.01298	0.010392	-0.014543	0.009127	-0.000425
0.001755	-0.008998	0.015244	-0.011619	0.009939	-0.000628
-0.001339	-0.010849	0.009945	-0.002154	0.011446	6.1e-05
-0.006552	-0.008252	0.008979	-0.004424	0.006411	0.004791
-0.003773	-0.007975	0.00738	-0.013889	0.005003	0.006405
-0.002372	-0.005453	0.001377	-0.004945	0.004256	0.000481
0.00406	-0.002904	0.001128	-0.017272	0.007152	0.001273
0.01421	0.001747	-0.009396	-0.009961	0.006473	0.001774
0.013994	0.00453	-0.00844	-0.007057	0.013828	0.004198
0.010942	0.013918	-0.00766	-0.011372	0.015355	0.004293
0.006233	0.013185	-0.002389	-0.009803	0.012531	0.001639
0.008031	0.010857	0.00956	-0.010621	0.01556	0.006866
0.003437	0.012848	0.012786	-0.014068	0.019936	0.002568
0.001596	0.001582	0.010457	-0.010982	0.014874	-0.001509
0.000554	-0.006767	0.011829	-0.012997	0.01562	-0.005023
0.004774	-0.005597	0.018222	-0.010809	0.018563	-0.001936
0.002656	0.001485	0.011439	-0.016496	0.014225	-0.00409
0.00692	0.001369	0.011262	-0.014299	0.011365	-0.001704
0.006224	0.008758	0.013151	-0.01411	0.011356	-0.005224
0.008385	0.011026	0.014435	-0.008935	0.017906	-0.004322
0.001916	0.017033	0.010564	-0.005222	0.018625	-0.002738
0.004103	0.017065	0.01129	-0.005148	0.022227	-0.001182
0.006344	0.017	0.00847	-0.007214	0.022863	-0.001019
0.004268	0.019927	0.01151	-0.006406	0.017657	0.000741
0.005678	0.008865	0.004603	-0.006329	0.01899	0.0025
0.006593	0.014658	0.008415	0.003288	0.018121	0.000933
0.005232	0.01315	0.003528	0.002163	0.011406	-0.007393
0.005992	0.011012	0.004418	0.003913	0.011975	-0.014252
0.004655	0.015482	0.00589	0.000365	0.006034	-0.01325
0.003242	0.01631	0.006646	0.00783	0.007334	-0.015644
0.005554	0.023704	0.013157	0.009945	0.01088	-0.008105
0.010673	0.025893	0.017521	0.010066	0.017953	-0.006424
0.008573	0.031811	0.023297	0.007959	0.017729	-0.0032
0.007955	0.035403	0.022629	0.007301	0.007259	0.000908
0.012243	0.027962	0.024352	0.005454	0.001079	-0.005117
0.012116	0.014754	0.018851	0.010926	-0.006562	-0.013074
0.007785	0.014095	0.021164	0.0074	-0.006876	-0.011123
0.007716	0.006026	0.018477	0.011141	-0.004973	-0.009675
0.007876	0.011827	0.017054	0.009025	-0.005956	-0.006953
0.005885	0.019881	0.017048	0.008456	-0.004054	-0.007796
0.005821	0.016204	0.018589	0.013656	-0.005771	-0.006994
-0.001376	0.019891	0.018583	0.006379	-0.002401	-0.002111
-0.001431	0.014608	0.016576	0.007213	0.000198	-0.001305
0.000758	0.012914	0.016012	0.012367	-0.004432	0.000401
0.009508	0.011798	0.012518	0.008016	-0.011222	0.003356
0.005153	0.013895	0.00953	0.002431	-0.010044	-0.002426
0.006428	0.011671	0.016674	0.001056	-0.013212	-0.002259
0.002033	0.017445	0.015633	-0.004032	-0.011997	0.001322
0.000447	0.019534	0.018265	-0.000905	-0.008628	-0.002934
-0.000484	0.017173	0.01877	0.002716	-0.011057	0.002249
-0.0014	0.013276	0.016453	0.001241	-0.009093	0.007242
-0.005175	0.013024	0.015554	0.003408	-0.008593	0.012327
0.001274	0.012586	0.013289	-0.007293	-0.004468	0.008331
0.005551	0.013637	0.011711	-0.007975	-0.003923	0.010384
0.006841	0.012629	0.01078	-0.009348	-0.005546	0.010935
0.003759	0.014712	0.014074	-0.007166	-0.005618	0.013047
0.002095	0.013796	0.010807	-0.0085	0.006692	0.009923
0.006227	0.012087	0.013444	-0.007022	0.006639	0.010579
0.003154	0.012612	0.008733	-0.003325	0.004431	0.00915
0.002973	0.012352	0.00773	-0.005422	0.010939	0.00681
0.0013	0.009188	0.006792	-0.005445	0.00294	0.008212
-0.003299	0.003831	0.004466	-0.003277	0.00587	0.008913
0.000957	0.004166	0.00509	-0.005381	0.003719	0.005845
-1.8e-05	-0.003393	0.002833	-0.000311	0.00739	0.007238
0.001324	-0.00214	0.004829	-0.003761	0.005962	0.000404
0.000518	-0.001592	0.00175	-0.003798	0.012561	0.00233
0.001157	0.000437	0.00374	-0.001637	0.015491	0.004319
-0.003345	-0.00103	0.005029	-0.005912	0.019104	0.002502
-0.004219	-0.005548	0.002786	-0.003743	0.0169	0.005189
0.001068	0.007251	0.002655	-0.005023	0.01901	0.000579
0.001668	0.001187	-0.000188	-0.007196	0.018944	0.002516
0.001659	0.002459	0.000539	-0.007052	0.016695	-0.001262
0.005293	0.00074	-4.4e-05	-0.007622	0.016633	-0.005766
-0.002069	-0.005163	-0.002096	-0.009029	0.017356	-0.007314
0.003811	-0.003965	0.001	-0.005391	0.02029	-0.007306
0.00531	-0.006346	-0.002427	-0.011919	0.01955	-0.007535
0.004576	-0.006373	0.004972	-0.005373	0.026096	-0.006776
-0.004058	-0.002702	0.005016	-0.003897	0.020282	-0.007477
-0.002424	0.002951	0.004427	-0.004067	0.02104	-0.000966
-0.00936	0.020436	0.01022	-0.003914	0.022453	-0.006739
-0.003215	0.03028	0.009037	0.001154	0.020251	-0.005798
-0.002381	0.027046	0.007306	-0.001083	0.021707	-0.004292
-0.001658	0.013575	0.002901	-0.00402	0.018123	-0.004949
-0.001492	0.006646	-0.00664	-0.009778	0.014529	-0.009283
0.001628	0.005584	-0.009749	-0.009146	0.019703	-0.007689
-0.002026	-0.001789	-0.008639	-0.012862	0.02055	-0.007628
-0.004915	-0.007	-0.01273	-0.012284	0.025034	-0.004575
-0.003387	-0.006379	-0.009619	-0.007292	0.029505	-0.00354
-0.006213	-0.002042	-0.002978	-0.008109	0.023027	-0.002567
-0.003358	-0.010331	-0.004819	-0.003875	0.015807	4.5e-05
-0.005569	-0.017814	-0.005177	-0.01103	0.012173	-0.007049
-0.007742	-0.021683	-0.004883	-0.003086	0.007835	-0.007205
-0.00395	-0.016917	-0.006912	-0.007493	0.007169	-0.008469
-0.008265	-0.013362	-0.005455	-0.004026	0.013049	-0.003839
-0.004556	-0.00994	-0.00911	-0.00552	0.015271	-0.004386
-0.009631	-0.001077	0.000829	-0.004106	0.01459	-0.004856
-0.01327	0.002508	-0.000794	-0.0013	0.018292	-0.003122
-0.013288	0.006059	0.005684	-0.001307	0.021977	-0.005094
-0.011008	0.008696	0.002147	-0.0059	0.022797	0.000865
-0.010366	0.000393	0.003952	-0.007573	0.021435	0.006215
-0.011054	-0.003539	0.004328	-0.012706	0.015049	0.002822
-0.012363	-0.00529	-0.001099	-0.016416	0.015259	-0.00051
-0.007769	-0.001917	-0.001458	-0.021693	0.012629	-0.000279
-0.010463	0.001674	-0.00412	-0.025441	0.012886	-0.002257
-0.008917	-0.000526	-0.000872	-0.020617	0.014638	0.001749
-0.00928	0.009615	-0.002078	-0.014152	0.011251	-0.000751
-0.014084	0.016202	0.000416	-0.010696	0.013663	0.001024
-0.014467	0.021204	-0.001309	-0.008611	0.009484	-8.6e-05
-0.008173	0.030426	-0.000729	-0.006546	0.007456	0.000246
-0.003266	0.041781	-0.002309	-0.002348	0.001772	0.002843
0.003756	0.049478	0.002059	-0.00093	0.000444	0.000259
-0.001048	0.044247	0.005169	0.001199	0.007829	-0.000946
0.005139	0.03432	-0.001619	-0.004015	0.005818	-0.00018
0.010582	0.026037	0.001765	-0.003297	0.004542	-0.003685
0.011649	0.015647	-0.001438	-0.004873	0.003287	-0.002913
0.015139	0.019074	-0.001864	-0.001295	0.009274	-0.004185
0.018488	0.014525	0.001488	-0.000688	0.009451	-0.003311
0.01745	0.007168	0.004165	0.005725	0.003812	-0.002212
0.022483	0.011281	0.005357	0.004865	-0.001825	-0.001305
0.01714	0.004634	0.007391	0.010616	-0.001658	-0.00309
0.014098	0.003025	0.010909	0.00832	-0.009459	-0.003611
0.013398	0.004932	0.004996	0.013278	-0.006323	-0.003321
0.016877	-0.000492	0.004971	0.013986	-0.00832	-0.006787
0.008777	-0.000589	0.001817	0.00594	-0.013932	-0.009741
0.007068	-0.002058	0.014625	0.002876	-0.010816	-0.007595
0.009862	-0.000816	0.012849	0.010046	-0.015728	-0.006647
0.011822	-0.007596	0.005332	0.014396	-0.013404	-0.008707
0.00661	-0.000223	0.013528	0.014363	-0.013284	-0.009448
0.00494	-0.001787	0.010921	0.009851	-0.01897	-0.005906
0.000314	-0.001799	0.014778	-0.000963	-0.027631	-0.011865
-0.006463	0.000383	0.017858	-0.004698	-0.030492	-0.009009
0.0007	0.002875	0.008683	-0.006687	-0.034876	-0.016349
-0.001804	0.000567	0.007382	-0.007637	-0.04423	-0.008447
-0.002737	0.006232	0.002992	-0.009797	-0.045645	-0.009342
-0.001662	0.008333	0.007263	-0.007626	-0.043411	-0.008735
0.000154	0.0111	0.003427	-0.009025	-0.035382	-0.009795
-0.00255	0.00741	-0.00043	-0.002703	-0.026618	0.000909
-0.000936	0.007379	0.007258	-0.00111	-0.020867	-0.001548
6.5e-05	0.009366	-0.001122	0.006214	-0.023878	-0.000133
0.004607	0.011368	-0.002314	0.00567	-0.022546	-0.004001
0.006228	0.016292	-0.00439	0.01083	-0.02189	-0.00408
0.004109	0.019073	-0.002136	0.007213	-0.022641	-0.002958
0.003374	0.016627	-0.006387	0.004239	-0.023344	0.00104
0.003206	0.007648	-0.008437	0.006403	-0.020362	0.00289
0.001599	0.003081	-0.00845	0.010799	-0.01007	0.002514
-0.006526	0.001519	-0.013723	0.009296	-0.001204	0.004887
-0.009575	0.003583	-0.010338	0.009219	0.001871	0.00803
-0.010559	-0.000258	-0.011319	0.002688	0.007072	0.00812
-0.016588	0.001862	-0.011769	-0.003757	0.007855	0.006002
-0.027853	0.000437	-0.011608	-0.005162	0.01224	0.006875
-0.031799	0.00402	-0.007889	-0.016737	0.017298	0.008189
-0.0277	0.00516	-0.013522	-0.01227	0.012869	0.008515
-0.020113	0.001893	-0.013326	-0.003858	0.013424	-0.001937
-0.016063	0.005157	-0.016914	-0.005616	0.016809	-0.012525
-0.00639	0.001874	-0.013949	-0.007544	-0.00518	-0.017898
-0.000997	0.005953	-0.011913	-0.017016	-0.024831	-0.015439
0.00206	0.001247	-0.01344	-0.011122	-0.021258	-0.014953
0.002128	-0.006321	-0.012046	-0.005985	-0.006168	-0.009675
-0.002966	-0.016708	-0.008457	-0.012264	0.008669	-0.008424
-0.007112	-0.014084	-0.004278	-0.017834	0.01317	-0.003511
-0.008412	-0.018157	-0.007266	-0.013832	9.4e-05	-0.000549
-0.000202	-0.020157	-0.005811	-0.004781	-0.001379	0.00531
0.00152	-0.020672	-0.012429	-0.004269	-0.010849	0.003642
0.004646	-0.022573	-0.013197	0.001859	-0.005734	0.00998
0.004926	-0.020694	-0.014057	0.0045	0.002296	0.009725
0.008933	-0.01522	-0.017122	0.00659	0.011719	0.002957
0.009896	-0.016147	-0.017976	0.00641	0.01462	-0.000903
0.011667	-0.009761	-0.0109	0.004432	0.01395	0.007618
0.011214	-0.008528	-0.009557	0.00758	0.018982	-0.014058
0.016488	-0.013972	-0.008063	0.011138	0.014646	-0.025957
0.010082	-0.019971	-0.00295	0.003413	-0.017841	-0.027063
0.008938	-0.023988	-0.007155	-0.006193	-0.028908	-0.016664
0.004106	-0.027732	0.002487	0.003376	-0.003644	-0.015472
0.001691	-0.025094	-0.000219	0.010839	0.022917	-0.013153
0.004285	-0.029035	-0.001311	0.004478	0.035537	-0.008926
0.005563	-0.02559	-0.001767	-0.007572	0.037169	-0.009103
0.007492	-0.023438	0.003546	0.000862	0.037275	-0.012401
0.0045	-0.016164	-0.005075	0.001429	0.029998	-0.020114
0.00342	-0.017576	-0.002762	0.0018	0.01118	-0.022513
0.002405	-0.016827	-0.002634	-0.00232	0.010738	-0.024189
-0.006039	-0.02396	-0.003936	-0.002379	0.008156	-0.014135
-0.005577	-0.022524	-0.00379	-5.2e-05	0.020736	-0.009978
-0.011559	-0.015877	-0.008874	0.001774	0.035299	-0.011648
-0.015655	-0.020801	-0.003686	-0.005119	0.040308	-0.012061
-0.015063	-0.011342	-0.008841	-0.004728	0.033578	-0.010842
-0.016234	-0.013366	-0.007465	-0.013088	0.023138	-0.007033
-0.016688	-0.014618	-0.006164	-0.016243	0.01556	-0.006173
-0.013404	-0.009323	-0.006462	-0.014869	0.022449	-0.010389
-0.01885	-0.000951	-0.007675	-0.015144	0.032876	-0.004588
-0.013415	0.003502	-0.01167	-0.015021	0.035069	-0.011116
-0.005736	0.012993	-0.011338	-0.016649	0.031418	-0.005309
-0.000526	0.009415	-0.005056	-0.016632	0.01604	-0.005935
0.002677	0.011564	-0.008266	-0.009347	0.008631	-0.005707
0.001243	0.001438	-0.004072	-0.00921	-0.001688	-0.010759
0.002092	-0.006656	-0.007122	-0.005678	-0.001756	-0.007075
0.003794	-0.006747	-0.008087	0.000127	0.002564	-0.007079
-0.001821	-0.005943	-0.006257	0.000701	0.005488	-0.002207
-0.001545	-0.002433	-0.006587	-0.000624	0.014963	-0.009049
-0.011445	0.002673	-0.00551	-0.001689	0.014376	0.000885
-0.010384	0.006086	-0.006433	-0.00762	0.023968	0.001269
-0.007901	0.004992	-0.007163	-0.006998	0.02636	-0.000246
-0.008383	0.000293	-0.007098	-0.014619	0.020856	0.006073
-0.005011	0.007182	-0.000487	-0.015527	0.023368	0.005288
-0.000297	0.003005	-0.006101	-0.016487	0.021551	0.00596
-0.005046	0.001921	-0.010427	-0.028215	0.021166	0.001217
0.002605	0.002901	-0.011092	-0.030673	0.018569	0.004685
0.005868	0.006223	-0.006045	-0.032921	0.017299	0.001589
0.012749	0.004294	-0.008139	-0.032347	0.014488	0.003601
0.00226	0.010626	-0.006776	-0.031718	0.012346	0.004744
0.001834	0.005805	-0.00656	-0.027446	0.010158	0.006621
0.004426	0.005291	-0.001142	-0.024635	0.012302	0.009151
0.001247	0.00551	0.002142	-0.021752	0.004241	0.009421
-0.00555	0.002842	0.002655	-0.022444	0.000541	0.007326
-0.003559	0.001477	0.006204	-0.009815	0.006261	-0.00324
-0.005905	-0.000489	0.005379	-0.011226	0.013475	-0.005552
-0.004475	0.004044	0.006011	-0.007472	0.017741	-0.010575
-0.006661	0.008663	0.004446	-0.005837	0.015451	-0.018475
-0.006842	0.002421	0.003761	-0.004182	0.010259	-0.027752
-0.006187	-0.000928	0.000947	-0.004336	0.009528	-0.024661
0.000317	-0.003669	-0.00256	0.00209	0.008051	-0.022826
-0.000465	-0.004752	-0.003991	0.000592	0.00222	-0.024761
0.000986	-0.002261	-0.006219	-0.004061	-0.000627	-0.018065
0.000808	-0.006238	-0.001862	-0.005084	0.003135	-0.012054
-0.000763	-0.008806	-0.00556	0.001337	0.001824	-0.013117
0.001992	-0.00919	0.000153	0.001013	0.006375	-0.007101
0.002641	-0.004423	0.003542	0.005131	0.015333	-0.00468
0.006254	0.00246	0.003251	0.008552	0.017066	-0.004416
0.011895	0.004276	0.009525	0.001065	0.025393	-0.005733
0.015343	0.005384	0.013592	-0.000548	0.028653	-0.009762
0.016608	0.005063	0.01107	-0.00164	0.029035	-0.006387
0.025906	0.006126	0.007062	-0.00638	0.024346	-0.003058
0.038122	0.010915	0.008027	-0.01181	0.025449	-0.001169
0.051744	0.012785	0.000889	-0.011357	0.032349	-0.001376
0.065301	0.018436	0.005954	-0.012423	0.033405	0.001281
0.06356	0.026579	0.014504	-0.013587	0.033769	0.007498
0.059529	0.028162	0.026116	-0.012592	0.031271	0.013825
0.057044	0.029594	0.035017	-0.018058	0.044087	0.015666
0.051706	0.032525	0.050621	-0.019079	0.053287	0.014005
0.050083	0.03383	0.062076	-0.012297	0.06688	0.01983
0.039724	0.03085	0.07152	-0.01408	0.068077	0.019036
0.030836	0.02343	0.080501	-0.007086	0.070716	0.016345
0.013863	0.00596	0.086836	-0.010478	0.064629	0.021458
0.003552	-0.011508	0.090438	-0.008002	0.063573	0.025295
-0.010128	-0.017229	0.091053	-0.007542	0.062443	0.023281
-0.024352	-0.015702	0.083571	-0.002708	0.056917	0.021376
-0.041026	-0.028713	0.074763	-0.00597	0.054999	0.023555
-0.045158	-0.036826	0.062404	0.001818	0.064609	0.021627
-0.049279	-0.042697	0.048459	0.004462	0.067661	0.021769
-0.052442	-0.034715	0.02321	0.011503	0.070694	0.020642
-0.051302	-0.021499	0.007867	0.012003	0.071522	0.018854
-0.049505	-0.004639	-0.008555	0.014083	0.064294	0.012234
-0.044232	0.015071	-0.012887	0.000967	0.054826	0.002479
-0.035437	0.033871	-0.015905	-0.004037	0.034351	-0.010586
-0.034922	0.043273	-0.014604	0.003316	0.009415	-0.021924
-0.044714	0.051281	-0.009786	0.005481	0.001132	-0.028452
-0.038533	0.055196	-0.004012	0.00621	-0.004321	-0.034481
-0.028899	0.044419	-0.003046	0.009718	-0.000378	-0.034142
-0.027151	0.041056	-0.0	0.001543	-0.000134	-0.031313
-0.020493	0.028253	0.002363	-0.000688	-0.005713	-0.033439
-0.023338	0.015852	0.005255	-0.0026	-0.007362	-0.022619
-0.030389	0.01171	0.010232	-0.010927	-0.007361	-0.019364
-0.030736	0.012565	0.013084	-0.005686	0.00455	-0.009242
-0.025122	0.017748	0.016017	-0.006665	0.015937	-0.015109
-0.025239	0.022155	0.01182	-0.005996	0.028392	-0.004049
-0.028151	0.031684	0.017237	-0.015634	0.028003	0.008415
-0.020845	0.029133	0.00716	-0.028055	0.02857	0.012923
-0.017108	0.027391	0.000883	-0.033275	0.019947	0.017042
-0.00671	0.030736	0.003457	-0.021176	0.018891	0.023172
-0.004941	0.034931	-0.001938	-0.017015	0.010034	0.024122
0.004001	0.032549	-0.000577	-0.013495	0.009221	0.021296
0.002898	0.036908	0.001465	-0.01734	0.011333	0.021864
0.00185	0.043455	0.008691	-0.018352	0.008326	0.026064
-0.001325	0.046254	0.011828	-0.00685	0.005256	0.025414
-0.003072	0.043152	0.015222	0.00317	0.010125	0.026781
-0.001681	0.044277	0.012268	-0.000443	0.008443	0.020546
-0.001859	0.035206	0.008841	-0.004983	0.011918	0.021497
0.005308	0.025246	0.004886	-0.006426	0.007443	0.014526
-0.001393	0.014114	0.003063	0.004276	0.010344	0.015145
0.000886	0.013002	-0.00167	0.004818	0.015535	0.013333
-0.003472	0.012161	0.005157	-0.00191	0.016457	0.009941
-0.005405	0.018385	-0.001116	0.00677	0.010882	0.000571
-0.014983	0.005788	-0.00504	0.006275	0.00908	0.007013
-0.015021	-0.001148	-0.003147	0.00614	0.010834	-0.000236
-0.017866	-0.00149	-0.003593	0.004303	0.002426	0.002005
-0.020047	-0.004807	-0.007714	0.001029	0.001223	0.004217
-0.019267	-0.004521	-0.016345	0.007251	-0.003633	0.005194
-0.012798	-0.006391	-0.020736	0.009279	-0.010745	0.000229
0.002462	0.000428	-0.021737	0.011058	-0.009799	0.004619
0.01108	0.008165	-0.02523	0.01219	-0.008873	0.006047
0.019489	0.010865	-0.022277	0.013315	-0.010108	0.007475
0.02287	0.02016	-0.021727	0.012293	-0.007702	0.007375
0.030359	0.017767	-0.019659	0.009031	-0.009598	0.008701
0.027553	0.017783	-0.006886	-0.000594	-0.010058	0.002657
0.029917	0.016042	-0.008583	-0.004649	-0.010437	0.005496
0.021312	0.015981	-0.000904	0.002261	-0.010827	0.006448
0.021392	0.006172	-0.004616	0.003393	-0.001735	0.005097
0.023666	-0.00284	-0.005412	0.001542	-0.002779	0.005931
0.026768	-0.005943	-0.003356	0.002622	-0.001569	0.004733
0.020303	-0.013822	0.000121	4e-06	0.00476	0.005579
0.019922	-0.010861	0.002879	-0.000492	0.015461	0.008655
0.018157	-0.00639	-0.000211	0.002834	0.021772	0.004598
0.017071	-0.006244	-0.003944	0.001571	0.025957	0.0085
0.015964	-0.005983	0.001104	-0.009643	0.030801	0.003525
0.005458	-0.004131	0.000271	-0.020227	0.028365	0.002321
0.012431	-0.007726	-0.003908	-0.023621	0.033208	0.00425
-0.002414	-0.006514	-0.00468	-0.022452	0.028509	-0.000844
-0.000573	-0.012134	-0.006659	-0.019998	0.026713	0.000697
-0.007373	-0.011746	-0.00878	-0.012973	0.027046	-0.005552
-0.009106	-0.010569	-0.004369	-0.012893	0.025976	0.003294
-0.010078	-0.008677	-0.005094	-0.005369	0.023416	0.005805
-0.015253	0.000555	-0.013239	-0.004375	0.026673	0.007433
-0.008248	0.003932	-0.008941	0.004642	0.029229	0.007814
-0.007895	0.003049	-0.011314	-0.001478	0.027394	0.002728
0.001288	0.010886	-0.008002	-0.001972	0.029955	0.005013
0.000935	0.01595	-0.008427	-0.002256	0.028161	-0.001381
0.006303	0.016596	-0.005148	-0.007995	0.035868	0.005895
0.010154	0.012828	-0.005463	-0.013587	0.03046	0.007434
0.01407	0.011253	-0.006495	-0.013349	0.021406	0.008467
0.009902	0.009157	0.00042	-0.003687	0.023269	0.010515
0.009412	0.006187	0.000838	-0.004105	0.025079	0.008725
0.007542	0.006906	0.001956	-0.002568	0.01962	0.01578
0.010687	0.000943	-0.00117	0.002175	0.017716	0.012012
0.005785	-0.005545	-0.001448	0.001608	0.020188	0.016764
0.001798	-0.003341	-0.004709	0.004314	0.013832	0.008494
2.2e-05	0.003973	0.0007	0.005234	0.01405	0.013172
-0.009811	0.007	-0.00045	0.010736	0.011303	0.009974
-0.002981	0.004621	3.9e-05	0.007302	0.007128	0.014526
0.001903	0.011657	-0.008293	0.001155	0.00727	0.011738
0.002164	0.010122	-0.008643	0.007355	0.006654	0.010041
0.007623	0.0158	-0.008377	0.012118	0.000912	0.008266
0.005715	0.020127	-0.008239	0.008886	-0.001222	0.006314
0.005733	0.012822	-0.006593	0.005008	-0.009939	0.001487
0.007363	0.01482	-0.010201	0.008299	-0.018677	0.001211
0.007305	0.011079	-0.002936	0.010103	-0.026687	0.002299
0.008004	0.007205	-0.000743	-0.001755	-0.028185	-0.002801
0.011064	0.013391	0.001365	0.006567	-0.025274	-0.000844
0.003674	0.008075	0.007164	0.004842	-0.027474	-0.004235
-0.004336	0.004824	0.005726	1.2e-05	-0.02088	-0.000556
-0.002909	-0.000805	0.007348	0.00262	-0.022317	-0.003154
-0.004283	-0.00055	0.00742	0.004397	-0.02153	-0.00218
-0.006305	0.00633	0.008798	0.004065	-0.019301	-0.004156
-0.007738	0.004404	0.003686	7.6e-05	-0.018531	-0.005458
-0.002486	0.013374	0.007193	-0.003216	-0.016327	-0.005292
-0.009746	0.01526	0.007764	0.00013	-0.017107	-0.007819
-0.002378	0.019764	0.012847	-0.00324	-0.014998	-0.003273
0.001987	0.012492	0.005782	-0.006494	-0.011506	-0.00237
0.002078	0.014132	0.010258	0.003239	-0.010204	0.003204
0.006709	0.022155	0.010385	0.008735	-0.008954	0.004303
0.010462	0.022937	0.012022	0.003424	-0.012085	0.001467
0.012055	0.025203	0.015845	0.000163	-0.007215	0.004368
0.009219	0.024619	0.018931	-0.000602	-0.009698	-0.004262
0.012835	0.018052	0.021402	-0.007542	-0.00634	0.001387
0.01795	0.01144	0.022489	-0.006785	-0.001642	-0.008073
0.018704	0.00488	0.023577	-0.0019	0.000129	-0.007316
0.012968	0.002771	0.02604	-0.002871	0.004049	-0.004561
0.012405	0.002041	0.026388	-0.000728	0.001344	-0.008943
0.007533	-0.005219	0.022712	-0.005162	0.008036	-0.01133
0.005436	-0.008841	0.0223	-0.003013	0.004482	-0.01423
0.011406	-0.010371	0.019709	0.001876	0.000942	-0.0105
0.009376	-0.009552	0.012554	0.006125	0.000275	-0.009722
0.014457	-0.01241	0.014111	0.006731	-0.004018	-0.009005
0.010119	-0.00998	0.012512	0.011818	-0.003248	-0.012547
0.011444	-0.011983	0.016731	0.011646	-0.006057	-0.010384
0.007721	-0.01397	0.009964	0.010241	-0.00529	-0.016264
0.001669	-0.020912	0.008276	0.007843	-0.008861	-0.011954
0.005888	-0.022858	0.009484	0.013634	-0.011783	-0.013962
0.000825	-0.013774	0.005342	0.009982	-0.017657	-0.016167
-0.000845	-0.016376	0.000535	0.009183	-0.027209	-0.015392
0.007053	-0.012562	-0.003602	0.017925	-0.028041	-0.017397
-0.002785	-0.016344	-0.00357	0.018477	-0.030995	-0.012417
0.005016	-0.010873	-0.002861	0.011995	-0.037591	-0.017079
0.007738	-0.004625	-0.011028	0.011828	-0.035432	-0.012258
0.006662	-0.002584	-0.009751	0.006753	-0.030356	-0.014276
-0.000251	0.000283	-0.008562	0.008089	-0.026681	-0.011123
0.003836	0.006505	-0.006564	0.003705	-0.026609	-0.012493
0.00347	0.008415	-0.006023	-0.001426	-0.0207	-0.013206
0.001488	0.003081	-0.001775	-0.005168	-0.016944	-0.011697
0.004677	0.000507	0.00179	-0.003129	-0.013162	-0.009258
-9.8e-05	-0.00118	0.001667	-0.004607	-0.010126	-0.011294
-0.004054	-0.001477	-0.001284	-0.006946	-0.005647	-0.00757
-0.00876	-0.002494	-0.000552	-0.007012	-0.00698	-0.007442
-0.011263	-0.004294	0.001745	-0.0085	-0.003281	-0.007429
-0.014362	-0.004696	-0.003135	-0.01369	0.004773	-0.004631
-0.021069	-0.005025	-0.007974	-0.01303	0.006987	-0.002437
-0.025718	-0.009659	-0.002541	-0.013031	0.01282	-0.002487
-0.024865	-0.001373	-0.012381	-0.014486	0.025162	-0.001889
-0.02571	-0.001661	-0.010522	-0.013809	0.029474	0.001014
-0.024276	-0.000569	-0.014432	-0.014557	0.030114	0.003173
-0.020554	0.00785	-0.01185	-0.018313	0.027131	0.008939
-0.019063	0.009635	-0.018627	-0.016723	0.027723	0.005385
-0.016944	0.010763	-0.01377	-0.014527	0.030475	0.006963
-0.015545	0.011155	-0.008122	-0.00998	0.028819	0.00213
-0.010622	0.000456	-0.011	-0.007699	0.035878	0.000846
-0.010515	0.002108	-0.0198	-0.006902	0.035648	0.000996
-0.006208	-0.000571	-0.013969	-0.006048	0.034687	-0.001038
-0.006246	-0.005485	-0.019047	-0.005849	0.038075	-0.005972
-0.007578	-0.00157	-0.021293	-0.007326	0.033493	-0.002853
-0.004576	0.003099	-0.018483	-0.003483	0.028183	-0.009013
-0.000925	0.001142	-0.02141	-0.000635	0.033107	-0.005081
0.002153	0.009399	-0.017125	0.002477	0.034377	-0.011953
0.001437	0.007466	-0.013399	0.007506	0.032072	-0.00927
-0.002764	0.011283	-0.014037	0.010205	0.033467	-0.001577
-0.012202	0.007915	-0.009467	0.007353	0.031959	-0.005534
-0.014385	0.002181	-0.00257	0.004399	0.028357	-0.007204
-0.018543	0.003715	-0.000768	-0.001503	0.027702	-0.008196
-0.013963	0.002199	0.001948	-0.005321	0.023466	-0.006189
-0.015321	-0.008731	-0.001038	-0.006799	0.01775	-0.010575
-0.020135	-0.009359	-0.001959	-0.012027	0.013518	-0.010735
-0.007965	0.001452	0.002268	-0.008606	0.011454	-0.007101
-0.015529	0.007499	0.002056	-0.013788	0.004996	-0.008065
-0.013134	-0.000378	0.00648	-0.013179	0.007979	-0.007481
-0.009792	0.00259	0.008633	-0.012599	0.003637	-0.004723
-0.005742	0.003326	0.006431	-0.014054	0.008717	-0.00719
0.002655	0.002456	0.003564	-0.017131	-0.000688	-0.003843
0.005747	-0.005563	0.00428	-0.013617	0.002271	-0.002503
0.010351	-0.008509	0.005613	-0.018653	0.003746	-0.00793
0.011383	-0.006331	0.004624	-0.011522	-0.002709	-0.006449
0.014377	-0.014428	0.00444	-0.010198	0.000316	-0.00589
0.008145	-0.006347	0.006149	-0.003881	-0.002481	-0.001491
0.003093	-0.009193	0.014478	0.000393	-0.010369	-0.002922
0.007652	-0.004976	0.017649	0.002489	-0.014617	-0.004444
0.003293	-0.005651	0.025074	0.013316	-0.010832	-0.0065
-0.001699	0.001721	0.032301	0.011745	-0.007018	-0.007491
-0.000257	0.003914	0.037339	0.011536	-0.014087	-0.004828
0.001275	0.010453	0.03571	0.003453	-0.007351	-0.006851
-0.00093	0.017136	0.040493	-0.00096	-0.004965	-0.010234
-0.00098	0.022324	0.041608	0.004039	-0.004775	-0.011234
0.003882	0.018756	0.04572	0.001802	-0.005348	-0.013171
0.003072	0.024724	0.048936	0.002455	-0.007376	-0.014299
0.009404	0.023301	0.055203	0.003995	-0.005075	-0.021245
0.010088	0.026934	0.046825	-0.006459	-0.009988	-0.014703
0.016488	0.028398	0.047188	-0.005847	-0.01564	-0.013746
0.021302	0.026294	0.051137	-0.013938	-0.011131	-0.01376
0.020278	0.02138	0.045561	-0.014034	-0.014589	-0.013591
0.024563	0.032455	0.047043	-0.016518	-0.007135	-0.004864
0.025596	0.02531	0.044288	-0.018612	-0.012151	-0.009934
0.030433	0.028303	0.044347	-0.022278	-0.006302	-0.009319
0.028763	0.0335	0.041441	-0.014431	-0.007751	-0.002645
0.026354	0.037194	0.03712	-0.005697	-0.006362	-0.001699
0.025179	0.029956	0.038049	-0.001377	-0.004293	0.002027
0.02413	0.02477	0.028825	0.003644	-0.003725	0.007893
0.021628	0.024841	0.032613	0.006471	-0.003172	0.014434
0.022877	0.02395	0.021214	0.012493	-0.010668	0.010192
0.024811	0.023867	0.019272	0.011176	-0.013055	0.008587
0.021757	0.027504	0.012916	0.011068	-0.018279	0.016368
0.020101	0.027439	0.009593	0.013379	-0.014097	0.015442
0.015456	0.022318	0.006346	0.015125	-0.01141	0.008672
0.014545	0.021489	0.006059	0.019672	-0.00657	0.007014
0.008501	0.017806	0.004347	0.019751	-0.011888	0.008942
0.003981	0.018464	0.004786	0.018292	-0.015733	0.013761
0.00159	0.010278	-0.004042	0.017137	-0.009406	0.00623
-0.005842	0.008122	-0.004976	0.01575	-0.016844	0.007438
-0.011158	0.000858	-0.005805	0.013792	-0.016284	0.002093
-0.01651	-0.007837	-0.006645	0.009433	-0.014926	0.004652
-0.020106	0.000961	-0.004029	0.005249	-0.010615	-0.000144
-0.019479	-0.001361	-0.010727	0.00028	-0.006244	-0.003513
-0.022447	-0.001386	-0.017476	-0.001672	-0.008416	-0.011151
-0.022557	-0.002094	-0.016928	-0.005379	-0.003992	-0.00727
-0.019686	-0.001492	-0.022175	-0.008132	-0.009796	-0.012016
-0.022683	-0.001567	-0.029702	-0.005121	-0.010525	-0.01441
-0.023596	-0.002264	-0.025612	-0.007129	-0.010552	-0.019785
-0.019956	0.003343	-0.033201	-0.012981	-0.005466	-0.017263
-0.018799	-0.003332	-0.032705	-0.013757	-0.0077	-0.013155
-0.01693	-0.010005	-0.03298	-0.011568	-0.009277	-0.010387
-0.011927	-0.005863	-0.037733	-0.007946	-0.007213	-0.006855
-0.017977	-0.002154	-0.03024	-0.009318	-0.009568	-0.006364
-0.020256	0.003534	-0.034346	-0.008632	-0.009014	-0.000755
-0.019738	0.005557	-0.027416	-0.005041	-0.009175	0.004923
-0.019257	0.002414	-0.023249	-0.006345	-0.005	0.003157
-0.020176	-3.4e-05	-0.021947	0.000222	-0.000762	0.005934
-0.019506	0.001077	-0.024218	-0.002811	0.002137	0.012791
-0.015902	0.004412	-0.017701	0.002448	0.010154	0.007502
-0.013854	-0.002458	-0.018282	-0.006498	0.016871	0.014967
-0.012464	-0.006339	-0.014456	-0.008606	0.017771	0.010341
-0.008724	-0.005922	-0.013438	-0.00922	0.012888	0.003599
-0.013046	-0.010414	-0.011604	-0.016432	0.021837	-0.001218
-0.008402	-0.008596	-0.013979	-0.017871	0.03221	-0.00369
-0.011811	-0.009496	-0.012669	-0.013588	0.032374	-0.001639
-0.010709	-0.006144	-0.011985	-0.01789	0.031019	-0.004826
-0.006004	-0.005689	-0.002383	-0.019337	0.035462	-0.005734
-0.009164	-0.003806	-0.005106	-0.01584	0.031907	-0.000662
-0.006479	-0.003418	-0.004761	-0.024568	0.037774	-0.001019
-0.003716	-0.003014	-0.007229	-0.011459	0.03562	-0.001482
0.006149	-0.012115	-0.002955	-0.012794	0.037808	-0.005974
0.005276	-0.013779	-0.009051	-0.011356	0.040062	-0.006017
0.006491	-0.017522	-0.009368	-0.010729	0.037244	-0.00313
0.007602	-0.024015	-0.005383	-0.006277	0.038734	-0.007344
0.001683	-0.015803	-0.005325	-0.006296	0.034435	-0.007984
-2.9e-05	-0.014184	-0.001578	-0.001979	0.029454	-0.00845
-0.001001	-0.013394	-0.002911	-0.003506	0.032468	-0.008293
-0.000659	-0.020643	-0.004142	6.2e-05	0.026774	-0.008666
-0.001796	-0.022696	0.003176	-0.002153	0.023245	-0.010602
-0.002843	-0.019654	0.003785	0.000636	0.016106	-0.00947
-0.000844	-0.006423	0.007871	0.003459	0.00319	-0.010473
-0.00125	-0.004038	0.010532	0.006886	-0.003857	-0.007145
0.001413	0.005555	0.009488	0.006797	-0.000725	-0.008367
0.005195	0.00137	0.016532	0.008112	0.004594	-0.007417
0.007779	0.008052	0.012516	0.008717	-0.001692	-0.007862
0.015351	0.009553	0.008547	0.01082	2.3e-05	-0.009801
0.017097	0.011854	0.001568	0.006378	-0.007704	-0.011907
0.022313	0.009842	0.002564	0.002524	-0.007408	-0.00891
0.015884	0.009386	-0.000212	0.007504	-0.018732	-0.010052
0.013027	0.007393	-7.4e-05	0.003691	-0.019112	-0.00928
0.01097	0.011876	0.00436	0.00067	-0.01514	-0.010716
0.003031	0.014142	0.006591	0.004726	-0.016199	-0.004746
-0.002751	0.013338	0.004523	0.00527	-0.015059	-0.003989
-0.002066	0.008055	0.004741	0.010157	-0.008766	-0.003166
-0.000573	0.007895	0.004131	0.007015	-0.010446	-0.001791
-0.00053	0.009924	0.001215	-0.001024	-0.007056	-0.007863
0.006796	0.016971	0.005476	0.00096	-0.003619	-0.007894
0.001647	0.020587	0.006704	-0.006454	-0.006709	-0.011
0.00657	0.015205	0.000795	-0.008095	-0.00695	-0.011082
0.001901	0.004907	-0.004437	-0.011917	-0.004326	-0.010511
-0.001897	0.005528	-0.002511	-0.012797	-0.005441	-0.009193
-0.010213	-0.001056	0.00018	-0.010683	-0.004478	-0.009305
-0.01391	0.003798	-0.003022	-0.005578	-0.005081	-0.010806
-0.018525	0.001446	0.000367	-0.002891	-0.005726	-0.00218
-0.014948	0.006866	-0.002832	-0.003629	-0.010133	-0.000164
-0.012909	0.008648	-0.00676	2.2e-05	-0.009462	0.001203
-0.010372	0.006172	0.003066	-0.004226	-0.013213	-0.000559
-0.009138	0.00645	-0.006094	-0.004901	-0.019112	-6.9e-05
-0.010933	0.006236	-0.002232	-0.006972	-0.01632	-0.001153
-0.010656	-0.001347	-0.002656	-0.003281	-0.018612	0.00072
-0.008839	-0.004611	-0.00458	-0.002371	-0.020232	-0.001837
-0.007745	-0.009333	-0.012337	-0.003678	-0.018228	-0.002367
-0.003676	-0.006755	-0.011457	-0.007092	-0.016303	-0.004451
-0.000882	0.005231	-0.016552	0.000318	-0.018034	-0.002603
-0.003459	0.004974	-0.019432	-0.00229	-0.019131	-0.006104
0.001088	-0.000455	-0.015717	0.000808	-0.022402	-0.00509
0.005136	0.007167	-0.012883	0.005245	-0.021299	0.000322
0.003193	0.00538	-0.014382	0.007537	-0.023067	0.003519
-0.003085	0.006579	-0.01228	0.0121	-0.018271	0.003078
-0.000693	0.003242	-0.010058	0.010834	-0.011981	0.002452
-0.003431	-0.000671	-0.0057	0.015443	-0.007164	-0.000184
-0.000995	-0.004747	-0.010746	0.013338	-0.002305	0.00349
-0.003576	0.00085	-0.005805	0.009164	0.002472	0.003545
-0.001983	-0.007519	-0.008687	0.002897	0.006481	0.000624
-0.00226	0.000141	-0.013918	-0.001276	0.006099	0.001459
0.003915	0.004082	-0.013251	-0.000218	0.007135	-0.002671
0.002127	0.011773	-0.012695	-0.002866	0.012538	-0.004025
0.005304	0.009104	-0.017039	0.000338	0.008434	-0.005902
0.009157	0.007943	-0.009757	0.001339	0.015157	-0.005696
0.008767	0.011808	-0.011303	0.000958	0.015318	-0.008383
0.004558	0.007749	-0.008422	-0.001169	0.019144	0.000458
-0.002698	-0.001287	0.000305	-0.006656	0.017081	-0.000936
-0.000979	-0.004778	-0.004725	-0.006241	0.022965	-0.005049
-0.005946	-0.009445	0.003256	-0.013283	0.017205	-0.002013
-0.002681	-0.007799	-0.001117	-0.012281	0.016481	-0.000151
-0.002495	-0.00893	0.004614	-0.006055	0.012044	-0.002486
-0.001508	-0.009445	0.000145	-0.004207	0.006839	-0.00352
-0.002652	-0.003978	0.001362	-0.002308	0.000882	-0.006057
-0.003947	-0.00501	0.00626	-0.005596	0.004365	-0.004439
3.4e-05	-0.001168	0.001739	-0.005857	0.004881	-0.006422
0.009077	0.00258	0.001608	-0.004822	0.004694	-0.002527
0.009348	0.006451	0.002108	-0.007194	-0.003514	-0.008063
0.013115	0.002988	0.004891	-0.007567	-0.00295	-0.007015
0.013131	-0.006289	0.00625	-0.012275	-0.00532	-0.006807
0.007566	-0.003104	0.003788	-0.008911	-0.004087	-0.00924
0.003948	-0.011522	0.005815	-0.009233	-0.013052	-0.009549
0.006352	-0.012864	-0.000914	-0.00591	-0.013366	-0.00906
0.016191	-0.00562	-0.00993	-0.00115	-0.018855	-0.006397
0.024447	-0.000365	-0.011041	0.000694	-0.014203	-0.002494
0.027394	-0.003678	-0.011485	0.008418	-0.01394	-0.000619
0.026039	-0.000267	-0.005514	0.009519	-0.007122	0.004577
0.021061	0.002408	-0.006865	0.000622	-0.009042	0.002263
0.016721	-0.000733	-0.003688	0.001132	-0.008025	0.001621
0.013862	-0.002366	0.00832	-0.000507	-0.012808	-0.000547
0.011703	-0.009918	0.013193	0.001628	-0.009599	-0.0084
0.010563	-0.007318	0.013009	-0.000914	-0.001956	-0.004787
0.009177	-0.019907	0.013029	-0.008495	0.001322	-0.002861
0.005905	-0.017783	0.012167	-0.00876	0.002351	-0.001498
-0.003147	-0.013995	0.010521	-0.006714	0.006245	-0.004514
-0.008543	-0.010851	0.011868	-0.006182	0.012283	-0.004684
-0.010131	-0.005682	0.003162	-0.015896	0.010303	-0.002209
-0.014007	-0.002497	0.007587	-0.014345	0.006053	-0.012554
-0.011237	-0.000989	0.002741	-0.002116	0.009134	-0.014001
-0.015805	5.7e-05	0.008821	-0.002907	0.008579	-0.018692
-0.0218	-0.000354	0.01282	-0.009607	0.007293	-0.019898
-0.019707	-0.000937	0.013341	-0.009939	0.011112	-0.014373
-0.016821	-0.002328	0.005928	-0.01422	0.011228	-0.024888
-0.00609	-0.011709	0.005204	-0.008766	0.012888	-0.019058
-0.001813	-0.011381	0.010799	-0.007636	0.012374	-0.015429
0.011405	-0.006187	0.001844	-0.00281	0.01696	-0.014567
0.014358	5.3e-05	0.000741	-0.005309	0.017249	-0.013075
0.018037	0.008524	0.006161	-3.4e-05	0.013968	-0.003351
0.011475	0.016392	0.017404	-0.002409	0.00699	-0.00752
0.006966	0.007185	0.013792	6.4e-05	0.011701	-0.002818
0.004707	0.00232	0.018989	-0.003958	0.014941	0.000185
0.004004	-0.00126	0.016989	0.002215	0.020338	0.003369
0.008299	-0.008464	0.018645	0.00377	0.020649	0.016594
0.010498	-0.010485	0.016503	0.002666	0.026763	0.019632
0.01066	-0.004381	0.009058	-5.3e-05	0.017597	0.029187
0.017239	-0.00042	0.010278	-0.004631	0.025062	0.026993
0.019533	0.009455	0.008398	-0.001903	0.021621	0.023548
0.017399	0.021594	0.015134	0.005093	0.023259	0.024453
0.012131	0.022762	0.024186	0.001394	0.031368	0.017701
0.009068	0.022244	0.03048	-0.003165	0.03796	0.017358
0.002328	0.01874	0.038357	-0.008805	0.051647	0.003932
-0.000758	0.012123	0.042781	-0.008922	0.048578	0.002417
-0.008232	0.002632	0.044345	-0.023597	0.044743	0.001294
-0.006112	-0.003346	0.040854	-0.020002	0.035802	-0.002963
-0.013397	-0.003188	0.040802	-0.015834	0.030555	-0.002077
-0.011076	0.004241	0.039189	-0.00423	0.028962	-0.007641
-0.002296	0.007303	0.038321	0.000459	0.031098	-0.000209
-0.004306	0.01788	0.034341	0.00475	0.027441	-0.00651
-0.007166	0.024181	0.038426	-0.002728	0.032589	-0.008799
-0.007167	0.022298	0.034721	-0.005988	0.036338	-0.00591
-0.008578	0.021064	0.031112	-0.005419	0.035719	-0.010827
-0.006366	0.016129	0.025449	-0.006687	0.034553	-0.002734
-0.01015	0.004833	0.024121	-0.004228	0.038573	0.000416
-0.008544	0.011614	0.024768	0.00491	0.044113	-0.002711
-0.009197	0.011888	0.018908	0.006555	0.04613	0.001297
-0.006204	0.015872	0.023203	0.009106	0.042439	-0.003309
-0.00169	0.018988	0.015886	0.005612	0.03308	-0.000793
0.007844	0.017687	0.00863	0.005821	0.039078	-0.001854
0.004301	0.022567	0.011393	0.006167	0.045189	-0.009519
0.002181	0.024501	0.01276	0.007628	0.04057	-0.005554
-0.002051	0.030887	0.01848	0.009157	0.045489	-0.005257
-0.009847	0.037283	0.016227	0.001883	0.041808	-0.003677
-0.012738	0.03197	0.019341	0.007036	0.044022	-0.005381
-0.015537	0.025795	0.014607	0.000526	0.030313	-0.007283
-0.022445	0.034271	0.016334	-0.00061	0.036428	0.006215
-0.033851	0.031843	0.016118	-0.003574	0.021475	0.005251
-0.034883	0.033549	0.009481	-0.005734	0.01604	0.000597
-0.033026	0.034603	0.010195	-0.006606	0.012848	0.00181
-0.032536	0.036326	0.002208	-0.008945	0.008965	0.003005
-0.031972	0.04324	0.001487	-0.014892	0.005121	0.002611
-0.03	0.046523	0.001576	-0.015102	0.006406	0.00522
-0.025812	0.050487	0.003187	-0.011752	0.002627	0.010791
-0.028976	0.051621	0.007735	-0.005097	0.004604	0.001205
-0.027693	0.048864	0.000139	-0.001672	-0.000664	0.003947
-0.028011	0.044036	0.008577	-0.003917	0.001281	0.001413
-0.023178	0.035361	0.004801	-0.007116	-0.007704	0.008272
-0.025432	0.037634	0.000895	-0.013844	-0.007945	0.010631
-0.024115	0.035458	-0.001443	-0.010871	-0.009687	0.003833
-0.004548	0.032877	-0.010225	0.001962	-0.010629	0.008976
-0.004775	0.0285	-0.013378	0.00639	-0.014478	0.000906
0.003136	0.030496	-0.017278	0.009189	-0.024074	-0.001292
0.00798	0.028896	-0.015417	0.00877	-0.029891	0.007238
0.015073	0.028582	-0.022313	0.012992	-0.033536	0.00494
0.013401	0.032758	-0.022116	0.012725	-0.029124	0.006864
0.010794	0.031131	-0.012461	0.016733	-0.033324	0.011071
0.014692	0.026328	-0.007116	0.015761	-0.031636	0.009995
0.006346	0.027313	-0.012836	0.015247	-0.031296	0.018373
0.006487	0.017224	-0.01037	0.012923	-0.025858	0.011501
0.00295	0.00642	-0.008686	0.014715	-0.026104	0.012801
0.003965	0.004185	-0.012913	0.00924	-0.029233	0.013235
0.005652	0.000463	-0.018657	0.008056	-0.027169	0.015242
0.006746	0.007758	-0.018772	0.008412	-0.020726	0.013625
0.009137	0.009244	-0.017464	0.003712	-0.022323	0.011115
0.007773	0.008642	-0.010403	0.003299	-0.018105	0.011628
0.005055	0.007184	-0.017836	-0.002156	-0.024846	0.010613
0.000797	0.010281	-0.004277	-0.006965	-0.018514	0.013129
-0.008522	0.009647	-0.003742	-0.011701	-0.004273	0.014086
-0.005612	0.000736	0.001387	-0.011193	0.004789	0.01009
-0.009909	-0.007368	-0.00152	-0.01221	0.011636	0.009053
-0.008957	-0.010525	-0.010234	-0.012319	0.00968	0.001594
-0.01104	-0.014896	-0.005165	-0.015682	0.014302	0.007202
-0.018168	-0.016903	-0.005328	-0.021059	0.016707	0.006289
-0.016364	-0.01182	-0.012783	-0.021286	0.020541	0.003346
-0.01252	-0.011693	-0.011468	-0.015705	0.021483	0.000588
-0.004773	-0.000701	-0.017522	-0.014507	0.025338	-0.001564
0.001329	0.002425	-0.019187	-0.011197	0.029951	-0.001431
0.008916	0.008466	-0.018719	-0.011587	0.033073	0.001554
0.01424	0.009424	-0.022604	-0.009697	0.037613	0.000987
0.018715	0.008347	-0.017073	-0.008491	0.044295	-0.000991
0.010089	0.008942	-0.010184	-0.005883	0.044436	-0.001307
0.014544	0.002659	-0.009589	-0.001915	0.043115	0.002121
0.018168	-0.012343	-0.013961	0.00219	0.042463	0.000548
0.0176	-0.017719	-0.014787	0.00192	0.045459	-0.001048
0.020741	-0.017988	-0.010552	0.004372	0.036816	0.004768
0.021636	-0.023296	-0.008436	0.006929	0.035443	0.006259
0.012458	-0.021803	-0.007203	0.005952	0.036249	0.003349
0.007563	-0.023953	-6.1e-05	0.007155	0.038522	0.000461
0.000608	-0.023925	-0.003853	0.003743	0.040126	0.006844
-0.001885	-0.01809	-0.000348	0.002636	0.033008	0.008224
-0.011824	-0.023797	-0.002561	-0.00503	0.033918	0.009457
-0.015023	-0.020088	-0.002623	-0.011812	0.029675	0.004991
-0.01026	-0.020832	-0.003292	-0.012179	0.031197	0.006505
-0.005399	-0.017156	-0.009158	-0.015329	0.021741	0.003673
-0.007924	-0.014658	-0.010081	-0.010604	0.019543	0.00612
-0.008983	-0.008429	-0.008969	-0.005049	0.010002	0.005088
0.001561	-0.003088	-0.006392	-0.003921	0.003414	0.005496
0.002598	0.001686	-0.00391	-0.002647	-0.000328	0.000827
0.005776	0.006467	0.002914	-0.001463	-0.008445	-0.000186
0.002295	0.00472	0.0054	-0.001635	-0.013662	-0.00494
0.002474	0.003632	0.009387	0.000994	-0.021827	-0.004595
0.012188	0.003052	0.008373	-0.002879	-0.027126	-0.005248
0.010902	-0.000204	0.008007	0.003601	-0.028818	-0.01221
0.019841	-0.001366	0.011317	-0.003222	-0.029047	-0.010848
0.021571	0.001251	0.009387	-0.005654	-0.027836	-0.010163
0.02037	0.00251	0.006718	-0.001489	-0.024483	-0.010791
0.029166	-0.004361	0.012197	-0.006723	-0.023326	-0.013806
0.023731	0.004926	0.007197	0.000168	-0.021382	-0.007799
0.019508	0.003988	0.008854	0.004242	-0.022274	-0.006878
0.014517	0.001596	0.012712	0.00969	-0.020205	-0.003687
0.013912	-0.002432	0.010824	0.020314	-0.011581	-0.004026
0.004622	-0.003435	0.008867	0.012644	-0.00656	-0.000516
-0.00027	-0.003788	0.003264	0.011649	-0.005198	-0.001893
-0.002347	-0.004848	0.004883	0.013547	-0.002398	-0.002453
-0.001535	-0.005153	0.007888	0.013882	-0.005396	0.001261
-0.00504	-0.000258	0.008512	0.009231	-0.004806	0.001217
-0.006369	0.003834	0.004745	0.006811	-0.007891	-0.000216
-0.002779	0.00209	0.006813	0.00799	-0.003753	0.000594
0.003046	0.002446	0.003734	0.006246	-0.000373	0.002694
-0.002868	0.00085	0.003469	0.008868	0.00295	0.005621
-0.001468	0.002024	0.003173	0.008914	0.0047	-0.003158
-0.00462	-0.006979	-0.0007	0.004988	0.005766	0.001008
-0.003958	-0.005068	0.001165	0.001862	0.007516	0.00299
0.002588	-0.001855	-0.002047	0.002064	0.005553	-0.010887
0.005469	0.001445	-0.004594	0.00178	7e-05	-0.00724
0.000216	0.001278	-0.002836	0.002298	-0.009029	-0.007147
-0.000604	0.004608	-0.001815	0.003608	-0.007252	-0.009227
0.002226	0.010087	0.002824	0.000561	-0.010574	-0.011446
-0.000702	0.017034	0.001616	-0.001171	-0.00806	-0.007921
0.00198	0.012933	0.00423	4.4e-05	-0.007722	-0.005815
-0.00615	0.013291	0.000922	0.00639	-0.002343	-0.004351
-0.003399	0.008296	-0.004364	0.00401	-0.004964	-0.003099
-0.00581	0.004183	-0.000996	0.00112	-0.002563	-0.009817
-0.007412	0.002165	-0.00419	-0.00426	-0.002323	-0.004287
-0.009116	-0.003473	-0.004467	0.002154	-0.002115	-0.004295
-0.005532	0.000962	-0.004068	-0.002384	-0.004053	-0.003168
-0.00935	0.002637	0.000615	0.001094	-0.008157	-0.002592
-0.010126	0.009282	-0.00203	-0.005627	-0.002103	-0.000927
-0.011157	0.00282	-0.003825	-0.009294	-0.004089	-0.004277
-0.009074	0.009436	-0.000661	-0.003533	-0.001004	-0.005979
-0.010762	0.010268	0.004727	-0.010149	0.004922	-0.006518
-0.009599	0.003675	0.002994	-0.008212	0.004286	0.000437
-0.009745	0.005117	0.002646	-0.008824	0.003539	-0.005705
-0.002813	-0.005203	0.000996	-0.009541	0.004952	-0.007467
-0.003031	-0.009545	-0.005148	-0.009591	0.00054	-0.00694
-0.000313	-0.010264	-0.00698	-0.003305	0.006284	0.002441
-0.001177	-0.007252	-0.009637	-0.003788	-0.002602	-0.007224
-0.002765	0.000188	-0.00586	-0.006666	-0.002033	-0.008274
-0.005095	0.005411	-0.004952	-0.000173	-0.00655	-0.005516
-0.003845	0.004656	-0.006797	0.002084	-0.005318	-0.006596
-0.002637	0.001663	-0.006384	-0.000835	-0.004803	-0.004232
-0.001566	-0.007069	-0.002306	1.9e-05	-0.000692	-0.006845
-0.000272	-0.005658	-0.00342	0.005215	-0.00099	-0.007873
-0.001921	-0.003439	-0.001699	0.007536	-0.005607	-0.011107
-0.004397	-0.004748	0.00513	0.002291	-0.00871	-0.003631
-0.00315	-0.003964	0.006134	0.001883	-0.011882	-0.014184
-0.003269	-0.000223	0.004949	-0.000426	-0.011377	-0.007364
-0.003329	0.002672	-0.006386	-0.001878	-0.003588	-0.005683
2.6e-05	-0.003128	-0.007434	0.00271	-0.003858	-0.011837
0.004176	-0.003814	-0.007859	0.001271	-0.002615	-0.010233
0.002461	-0.002877	-0.003313	0.008566	-0.002115	-0.008417
0.005899	0.000833	-0.000965	0.007864	-0.007441	-0.006787
0.004253	0.006043	-0.002368	0.005823	-0.004772	-0.009613
-0.001745	0.015717	0.004155	0.002966	-0.005695	-0.009538
-0.001425	0.00839	0.001479	0.002225	-0.006621	-0.006542
-0.001796	0.005488	0.008256	-0.007196	-0.007548	-0.005291
-0.000696	-0.001187	0.004197	-0.003359	-0.004141	-0.010225
0.000356	-0.007752	0.00887	0.000353	-0.002921	-0.010067
0.001719	0.001737	0.008956	-0.003194	0.000452	-0.010109
0.002189	0.004759	0.00973	-0.00232	0.004489	-0.01149
0.004937	0.011327	0.006112	-0.002264	0.001994	-0.009269
0.006757	0.008482	0.004742	-0.002197	0.000928	-0.007068
0.005744	0.009284	0.001141	-0.004171	-0.009639	-0.009956
0.000983	0.003597	-0.000904	-0.004974	-0.00853	-0.001963
0.004395	0.007963	0.001369	0.001076	-0.006744	-0.005436
0.001069	0.001458	-0.000654	-0.002599	-0.009283	0.001666
0.001577	0.005841	-0.000587	-0.000848	0.00482	-0.003493
0.007798	0.00577	0.002442	0.004881	0.008097	0.005985
0.00294	-0.000569	0.004635	0.00359	0.009907	0.005141
0.001811	-0.000384	0.009654	-0.003528	0.004493	0.003511
-0.001527	-0.003146	0.008122	-0.004146	-0.000176	0.003522
-0.000314	0.005669	0.011594	-0.00761	-0.00124	0.001279
-0.004189	0.010822	0.004925	-0.008806	0.003449	-0.003164
0.001173	0.003451	0.00434	-0.007019	0.000837	-0.009766
-0.002148	0.000618	0.008041	-0.00483	0.005516	-0.00333
-0.001694	-0.000932	-0.000563	-0.005299	0.006466	-0.005693
-0.000591	-0.00237	0.002455	-0.002182	0.006673	-0.005769
0.004971	-0.003289	-0.005397	-0.002057	0.006124	-0.002273
0.001846	0.004873	-0.001116	-0.001091	0.008465	-0.003109
0.002899	0.00278	0.003281	0.004329	0.005688	-0.007393
-0.00104	0.003585	0.001112	0.003604	0.003712	0.00048
-0.002845	0.001428	0.001213	0.000232	0.000977	-0.001878
-0.006129	-0.001417	0.004987	-0.001051	0.007024	-0.001296
-0.008592	-0.004381	-0.002096	-0.00166	0.007253	0.001498
-0.006651	-0.003737	-0.001881	0.002283	0.007489	-0.003541
-0.015031	-0.007192	0.002632	0.00531	0.011361	-0.001292
-0.008674	-0.007334	-0.002924	0.002676	0.009365	-0.004947
-0.012612	-0.009385	-0.002757	0.001974	0.007425	0.000864
-0.012825	-0.008558	-0.003288	-0.000776	0.004754	0.001486
-0.01299	-0.006272	-0.005272	-0.00348	0.004245	0.000634
-0.014584	-0.001755	-0.004363	-0.003136	0.004466	-0.005933
-0.02072	-0.00437	0.003151	-0.000788	0.006898	-0.005284
-0.022284	-0.000598	0.001945	-0.002028	0.009308	-0.006214
-0.012145	0.003726	0.000123	-0.0047	0.007353	-0.007923
-0.015148	0.007646	0.00038	0.005711	0.01193	-0.00924
-0.007853	0.015751	0.00217	0.01549	0.007797	-0.014856
-0.007253	0.015992	0.005495	0.01266	0.01389	-0.011401
-0.007975	0.022087	0.010289	-0.006859	0.017072	-0.009821
-0.001414	0.025118	0.013799	-0.017506	0.026736	-0.013106
0.00159	0.031866	0.020982	-0.004258	0.018953	-0.012019
0.008264	0.034015	0.017431	0.001617	0.006135	-0.008143
0.019264	0.034687	0.025704	0.000462	-0.000158	-0.013908
0.022395	0.03683	0.024595	-0.013369	0.010379	-0.008506
0.025331	0.027301	0.028103	-0.010357	0.013614	-0.006993
0.027718	0.023494	0.026566	-0.008117	0.018328	-0.004061
0.027222	0.018971	0.02365	-0.004487	0.010741	0.000449
0.02231	0.013064	0.021424	-0.013181	0.01265	0.002444
0.025393	0.007	0.019211	-0.01539	0.010989	0.006075
0.020432	0.003286	0.018246	-0.020404	0.016681	0.004504
0.020625	0.003831	0.014994	-0.015395	0.023901	0.00831
0.014122	0.003053	0.01591	-0.011792	0.019588	0.008526
0.007539	0.00228	0.018876	-0.012525	0.026981	0.006442
0.003153	0.00356	0.019585	-0.008348	0.03223	0.011071
-0.000657	-0.000984	0.019516	-0.011396	0.036079	0.012652
-9.6e-05	-0.00193	0.0215	-0.00926	0.035538	0.010796
-0.003971	-0.00562	0.021207	-0.00561	0.03574	0.006119
-0.001213	-0.004291	0.018627	0.000188	0.030168	0.002239
-0.008679	-0.002676	0.017371	-0.009159	0.028202	-0.007046
-0.010383	-0.002495	0.02491	-0.003346	0.027737	-0.012283
-0.004668	-0.004828	0.012989	-0.008498	0.019226	-0.014867
-0.011326	-0.006806	0.008363	-0.006321	0.014998	-0.018685
-0.009795	-0.003854	0.0017	0.000115	0.006379	-0.017985
-0.012713	-0.005818	0.000237	-0.002891	0.006453	-0.017556
-0.019041	0.001763	-0.001228	-0.000723	-8.6e-05	-0.019196
