LArm_acc_X	LArm_acc_Y	LArm_acc_Z	RArm_acc_X	RArm_acc_Y	RArm_acc_Z
-0.003072	-0.002041	0.001579	0.000401	0.002581	-0.000544
0.004319	0.00288	0.003063	-0.001819	-0.001118	0.001633
-0.002919	0.002924	0.001568	-0.00534	0.001697	-0.002052
0.002849	-0.005309	0.000286	-0.00446	0.001567	-0.00636
0.001445	-0.003816	0.003901	0.000624	0.000748	-0.004743
0.00219	-0.0038	0.000985	0.004291	-0.000799	-0.003968
-4.2e-05	-0.005806	-0.003424	-0.000664	0.001257	-0.007065
0.002975	0.002381	-0.005006	-0.003633	-0.001743	-0.002817
-0.004308	0.004905	-0.005155	0.001374	0.001066	0.002377
-0.0022	0.003594	0.000654	-4.1e-05	-0.001232	0.002374
-0.002845	0.005783	0.002089	0.00136	-0.00276	0.005371
-0.002178	-0.002398	0.000772	0.000829	0.000774	-0.00117
-0.006535	-0.006078	0.002268	0.002336	-0.007287	-0.002528
-0.00505	-0.014177	-0.00052	0.00163	-0.002238	-0.00258
-0.001967	-0.012604	0.001642	-0.001099	-0.005209	-0.008503
-0.00831	-0.009251	0.000747	0.003918	-0.005986	-0.004072
-0.014626	-0.005729	0.002722	0.002432	-0.007501	-0.001265
-0.01149	-0.007458	0.003378	-0.001135	-0.001755	-0.002199
-0.012571	-0.004803	-0.0004	-0.006105	-0.005484	-0.005269
-0.010787	-0.007303	0.001008	-0.001704	-0.000457	-0.005225
-0.016078	-0.003167	0.003032	-0.000243	0.001658	-0.003807
-0.017704	-0.000549	0.008749	0.00122	-0.000559	-0.003092
-0.011336	-0.00606	0.010251	0.002631	0.003056	-0.000895
-0.014911	-0.004861	0.005053	0.002679	0.00301	-0.002321
-0.015561	-0.004952	0.009309	0.001183	-0.000661	-0.000162
-0.016042	-0.000597	0.006944	-0.000854	5e-06	-0.005277
-0.008426	0.007357	0.003127	-0.005291	-3.5e-05	-0.001758
-0.010363	0.013379	0.003592	0.006295	-0.003692	0.000744
-0.010808	0.020085	0.004067	-0.000221	0.004968	0.000541
-0.004679	0.024332	0.003214	0.001313	0.001997	-0.001598
-0.003689	0.023352	0.003164	-0.001574	-0.000224	-0.00169
0.001065	0.029398	0.006767	0.006489	-0.000997	-0.002974
0.008443	0.018441	0.008443	0.006356	0.00333	0.003488
0.005044	0.016343	0.007035	0.004275	0.006188	0.000483
0.009543	0.011169	0.004272	0.002274	-0.004064	-0.005385
0.016098	0.005371	0.002943	0.002362	0.00459	-0.007614
0.013971	0.007115	-0.00149	0.000857	0.000192	-0.004764
0.012278	0.003878	0.002831	0.001494	0.000883	-0.000402
0.006177	0.003629	0.004163	0.001646	0.000824	-0.0055
0.008859	0.008218	0.001901	0.001022	0.00294	-0.008451
0.010731	0.014181	0.003283	0.000951	0.002183	-0.004847
0.006628	0.017158	0.002502	-0.000484	0.002141	-0.004894
0.004422	0.007617	0.001166	-0.00267	-0.005168	-0.004197
0.002971	0.00457	0.001963	0.001762	0.000607	-0.006274
0.005128	0.001446	-0.000123	-0.004872	-0.001597	-0.002769
0.003606	0.003647	0.007855	-0.001277	-0.000161	-0.001175
0.012274	0.006391	0.004983	-0.00048	-0.000204	-0.003979
0.002552	0.005253	0.005585	-0.001273	0.002674	-0.001079
-0.001952	0.009857	0.003256	-0.001189	0.00118	-0.00396
0.000546	-0.00095	0.002604	0.003136	-0.000289	-0.002358
0.003249	0.000531	0.001849	-0.00415	0.001856	-0.001128
0.005093	-0.000169	0.003293	0.003085	0.004005	0.001213
-0.001083	0.000727	0.001005	-0.005559	0.001801	-0.001917
0.002868	0.001468	-0.000475	-0.00112	-0.001141	-0.004663
-0.000462	0.003786	-0.004221	0.001827	-0.000428	-0.006027
-0.000222	0.006046	-0.001383	-0.004166	-0.004752	0.000362
-7.7e-05	-0.000545	-0.002789	0.004634	0.002502	-0.002314
0.001785	0.005134	-0.005014	0.004526	-0.003271	0.001333
-0.000204	-0.000893	-0.006386	-0.000526	-0.001083	-0.000278
-0.008759	-0.006843	-0.001975	-0.007714	0.000381	-0.004091
-0.00556	-0.013843	-0.006158	-0.005482	0.00112	-0.00622
-0.0089	-0.019163	-0.005345	-0.003347	0.006249	-0.004749
-0.007021	-0.020827	-0.00601	-0.000426	0.000472	-0.006077
-0.005953	-0.023776	-0.004529	-0.000473	-0.000228	-0.004617
-0.003353	-0.023011	-0.000185	-0.002719	-0.002388	-0.002481
-0.010061	-0.019275	-0.005392	-0.000392	-0.003128	-0.008222
-0.009614	-0.020751	-0.000284	-0.004273	-0.001586	0.000371
-0.01492	-0.022238	-0.005394	0.003589	0.000694	0.004886
-0.007788	-0.020156	-0.000271	-0.000678	0.002247	-0.001004
-0.008027	-0.024448	-0.001717	0.003586	0.000207	-5.6e-05
-0.01113	-0.026437	-0.002501	-0.006621	0.001826	-0.003089
-0.01341	-0.022484	-0.000463	-0.007466	0.00205	-0.00364
-0.012816	-0.024308	0.00018	-0.007575	0.003769	-0.005585
-0.012787	-0.017291	0.002158	-0.00558	0.004094	-0.005291
-0.00763	-0.013274	0.002757	-0.009444	0.00879	-0.003702
-0.0067	-0.007021	-0.003979	-0.006086	0.001865	-0.000399
-0.002322	-0.01025	-0.008414	-0.003223	0.000718	-0.006507
-0.000767	-0.003827	-0.010103	-0.002742	-0.00397	-0.006124
-0.006023	-0.011103	-0.017544	0.002101	-0.006436	-0.007
-0.00372	-0.003955	-0.014864	0.005529	-0.009569	-0.01079
-0.00942	0.000232	-0.010707	-0.000705	-0.003913	-0.007569
-0.015732	0.007824	4.3e-05	0.004901	0.000281	-0.012709
-0.015531	0.008365	0.005935	0.003678	-0.001983	-0.007841
-0.024281	-0.005125	0.006898	0.005477	-0.005	-0.007238
-0.028597	-0.015087	0.015889	0.005941	0.007204	-0.010393
-0.034199	-0.019198	0.016793	0.002509	0.026011	-0.003554
-0.036296	-0.026056	0.022059	0.004862	0.030196	0.005697
-0.036881	-0.027485	0.027177	0.006848	0.024036	0.002006
-0.037295	-0.017751	0.026278	0.004444	0.022281	-0.002432
-0.035651	-0.010661	0.029707	0.00256	0.009708	-0.001555
-0.025905	-0.00153	0.025898	-0.001572	-0.005737	0.000779
-0.019837	0.007734	0.022764	0.005306	-0.021088	-0.001751
-0.014617	0.01572	0.023955	-0.002471	-0.017402	-0.00122
-0.012166	0.027278	0.01346	-0.010422	-0.009977	0.005713
-0.002508	0.035846	0.015435	-0.013878	-0.004046	0.009025
0.003486	0.036878	0.000789	-0.015843	0.005478	0.011628
0.011593	0.036494	0.003646	-0.020894	0.004881	0.020024
0.016883	0.03446	-0.007277	-0.030284	0.007936	0.026206
0.031638	0.035086	-0.013021	-0.032257	0.011747	0.026048
0.036792	0.032982	-0.01227	-0.02991	0.015575	0.026788
0.043409	0.029354	-0.016577	-0.031243	0.012216	0.028141
0.050007	0.025031	-0.021617	-0.029756	0.016158	0.033119
0.054442	0.02523	-0.016554	-0.028749	0.014987	0.028624
0.058311	0.030386	-0.017332	-0.026601	0.012403	0.035823
0.053236	0.024651	-0.013663	-0.020554	0.00905	0.03296
0.045232	0.01356	-0.018616	-0.017355	0.004222	0.028505
0.051865	0.012408	-0.00606	-0.014229	0.005871	0.029022
0.049661	0.00472	-0.007321	-0.008736	0.007473	0.025012
0.041581	-0.00203	-0.008676	-0.011935	0.01268	0.021346
0.042903	-0.008045	-0.003453	-0.000658	0.006251	0.021629
0.03698	-0.008713	-0.002761	-0.001702	0.005616	0.020804
0.041943	-0.006429	0.003024	-0.001752	0.012166	0.010539
0.04102	-0.001073	0.00433	0.000897	0.009264	0.009072
0.039897	-0.001405	0.002732	-0.003706	0.009243	0.007379
0.042432	0.001182	-0.002532	-0.000309	0.00848	0.00657
0.041152	0.002545	0.003789	-0.001264	0.012046	0.006306
0.042117	0.007523	0.003526	0.00154	0.00535	0.002537
0.042438	0.01459	-0.002563	0.005775	0.008014	0.001662
0.048464	0.017945	-0.002746	0.01016	0.006283	-0.004331
0.049251	0.017703	-0.00803	0.00797	0.000873	-0.00832
0.055698	0.014592	-0.009641	0.007079	0.003455	-0.005107
0.05927	0.016751	-0.014289	0.002085	0.008145	-0.010781
0.060639	0.022036	-0.014673	0.005763	0.014235	-0.013306
0.059129	0.028907	-0.019498	0.006412	0.01378	-0.011474
0.061303	0.040089	-0.019969	0.004381	0.011773	-0.018323
0.066854	0.038795	-0.019545	0.009344	0.010548	-0.015459
0.066785	0.045421	-0.022109	0.008573	0.006399	-0.016324
0.057752	0.043395	-0.015167	0.014345	0.011704	-0.017696
0.056732	0.038861	-0.008802	0.014343	0.011888	-0.021294
0.053606	0.034991	-0.00826	0.010628	0.004084	-0.022711
0.051973	0.033243	-0.007718	0.012646	-0.000787	-0.021733
0.048725	0.025746	-0.004962	0.011777	0.002311	-0.021539
0.039695	0.020703	-0.001604	0.010931	-0.001138	-0.02273
0.041751	0.024284	-0.00337	0.012314	-0.003883	-0.025325
0.034887	0.027421	-0.002347	0.012975	-0.010978	-0.028626
0.029265	0.024067	-0.000551	0.012121	-0.015878	-0.029786
0.029539	0.023536	-0.002386	0.007543	-0.01058	-0.027477
0.018247	0.029821	-4e-05	0.002191	-0.011817	-0.023026
0.017181	0.032207	0.001007	-0.013142	-0.010164	-0.026819
0.016815	0.031582	-0.001529	-0.030029	-0.001244	-0.026331
0.008376	0.029538	-0.008466	-0.03458	0.000364	-0.024023
0.004995	0.026716	-0.007347	-0.040082	0.008559	-0.013727
0.000936	0.025222	-0.009121	-0.031879	0.006612	-0.000721
-0.006025	0.024443	-0.005075	-0.030112	0.006136	0.00575
-0.010756	0.018367	-0.008185	-0.023877	0.003466	0.006686
-0.014723	0.017452	0.006129	-0.011926	-0.00714	0.009382
-0.022124	0.017759	0.00155	-0.000717	-0.014054	0.011346
-0.025988	0.009884	-0.002876	0.005314	-0.016552	0.01604
-0.030584	0.003378	-0.002189	0.014255	-0.020446	0.020046
-0.040131	0.002766	-0.000868	0.019635	-0.014098	0.020903
-0.045293	-0.002357	0.003485	0.022076	-0.009151	0.023027
-0.04671	-0.008393	0.00574	0.023138	-0.007852	0.022882
-0.05676	-0.009915	0.013713	0.01986	-0.01094	0.02325
-0.058808	-0.017487	0.016019	0.016528	-0.008907	0.027055
-0.064373	-0.019919	0.01825	0.015644	-0.008381	0.022762
-0.066316	-0.026775	0.021291	0.0212	0.001588	0.024953
-0.068877	-0.029214	0.021354	0.017204	0.004978	0.032632
-0.069906	-0.029416	0.019198	0.01795	0.003128	0.02674
-0.06955	-0.03091	0.024296	0.013485	-0.005261	0.024473
-0.070553	-0.027219	0.025662	0.021329	-0.00711	0.022045
-0.067965	-0.029417	0.02202	0.012933	-0.021991	0.023333
-0.067446	-0.022782	0.026998	-0.005531	-0.03819	0.0138
-0.064088	-0.025032	0.024109	-0.019666	-0.048148	-0.004185
-0.066417	-0.019821	0.027633	-0.028277	-0.056252	-0.017014
-0.062979	-0.023507	0.018931	-0.028256	-0.050372	-0.029621
-0.063056	-0.017588	0.01882	-0.009608	-0.055236	-0.039027
-0.058079	-0.018252	0.01881	0.004869	-0.065108	-0.064643
-0.052264	-0.016035	0.016601	0.013704	-0.086359	-0.078283
-0.045628	-0.010888	0.012174	0.025281	-0.101977	-0.071104
-0.038884	-0.000618	0.011334	0.042845	-0.123577	-0.059544
-0.03449	0.000903	0.015686	0.046301	-0.139745	-0.081872
-0.032286	-0.003644	0.014348	0.056451	-0.162747	-0.092279
-0.026434	-0.013508	0.012427	0.065774	-0.159556	-0.099979
-0.021154	-0.01898	0.006084	0.070303	-0.155139	-0.105405
-0.013149	-0.029412	0.011416	0.07129	-0.153035	-0.100699
-0.011425	-0.031003	-0.003075	0.078272	-0.141162	-0.115987
-0.009909	-0.034472	-0.005992	0.085613	-0.126027	-0.129655
-0.012727	-0.02973	-0.004708	0.094859	-0.110474	-0.119005
-0.009731	-0.027418	-0.011322	0.101919	-0.101358	-0.119023
-0.001614	-0.020843	-0.009188	0.09935	-0.091391	-0.12204
-0.000306	-0.026698	-0.010576	0.103051	-0.087925	-0.123878
-0.002563	-0.026759	-0.006195	0.101403	-0.082182	-0.127052
0.003163	-0.032989	-0.008901	0.106	-0.074211	-0.129079
-0.002105	-0.040406	0.00141	0.098202	-0.075641	-0.141358
0.005884	-0.043673	0.005229	0.099722	-0.074663	-0.129474
0.01096	-0.043759	0.007458	0.103711	-0.069359	-0.136408
0.006501	-0.042653	0.011679	0.113408	-0.052396	-0.147559
0.004857	-0.046492	0.010077	0.113422	-0.047615	-0.130628
0.010617	-0.043763	0.004778	0.110508	-0.047405	-0.144366
0.014691	-0.048612	0.003052	0.099833	-0.034103	-0.145295
0.013743	-0.045076	0.004743	0.097872	-0.018495	-0.136798
0.020241	-0.034317	0.002023	0.082884	-0.012494	-0.138651
0.030923	-0.03234	-0.00496	0.085612	-0.004409	-0.136702
0.04007	-0.030951	-0.006162	0.085317	-0.003073	-0.138249
0.039556	-0.034343	-0.001623	0.087772	-0.004772	-0.157722
0.041388	-0.03037	-0.003746	0.08262	-0.009248	-0.168341
0.043858	-0.030421	-0.003757	0.072409	0.002266	-0.166498
0.047724	-0.032309	-0.008246	0.054912	0.023933	-0.16127
0.049942	-0.038802	-0.012148	0.039775	0.056643	-0.131552
0.052813	-0.045733	-0.019078	0.026878	0.062992	-0.115382
0.058573	-0.048882	-0.018819	0.022043	0.042401	-0.080858
0.0688	-0.048481	-0.022945	0.032095	0.021286	-0.147819
0.068581	-0.049875	-0.01412	0.038361	0.018812	-0.121714
0.066737	-0.051926	-0.00827	0.02798	0.029815	-0.110376
0.070398	-0.060605	-0.008922	0.006908	0.054224	-0.106689
0.059184	-0.066557	-0.005514	-0.011793	0.055869	-0.078402
0.065153	-0.071174	-0.002104	-0.01781	0.051402	-0.055919
0.054177	-0.066732	0.003908	-0.009824	0.052404	-0.056817
0.072714	-0.070479	-0.004979	-0.014829	0.048213	-0.050621
0.086372	-0.078552	-0.00225	-0.019745	0.051164	-0.039075
0.088908	-0.077813	-0.007035	-0.033046	0.074823	-0.03301
0.09849	-0.06329	-0.008384	-0.05757	0.092924	-0.025949
0.097696	-0.067234	-0.002557	-0.075967	0.089699	-0.012562
0.089457	-0.054839	-0.008104	-0.098388	0.087788	0.004581
0.087449	-0.029745	-0.005287	-0.098552	0.087898	0.021848
0.08922	-0.011438	0.000176	-0.098965	0.08208	0.0372
0.092654	-0.008123	-0.003946	-0.094577	0.073182	0.052328
0.095218	-0.002427	-0.006841	-0.080573	0.073415	0.0493
0.094314	0.009869	-0.014298	-0.086116	0.072758	0.056465
0.0965	0.030082	-0.011655	-0.105278	0.07196	0.075309
0.089629	0.060201	-0.01561	-0.119337	0.078713	0.064923
0.071035	0.082053	-0.014308	-0.113461	0.070633	0.065845
0.055267	0.088617	-0.027158	-0.099903	0.052138	0.068318
0.045443	0.100834	-0.030549	-0.092358	0.031308	0.068928
0.030872	0.084989	-0.029456	-0.096921	0.030896	0.082454
0.02761	0.0706	-0.037144	-0.1093	0.037054	0.087858
0.026928	0.071732	-0.039305	-0.10499	0.042496	0.090998
0.01886	0.097901	-0.043356	-0.092949	0.038426	0.094083
0.002053	0.119807	-0.035756	-0.069856	0.034009	0.077884
-0.017278	0.149868	-0.02062	-0.064781	0.011863	0.068646
-0.029642	0.134263	-0.024019	-0.065844	-0.003862	0.054067
-0.030159	0.118561	-0.018196	-0.074236	-0.021673	0.051405
-0.039065	0.101295	-0.023919	-0.083388	-0.024782	0.033665
-0.050338	0.100853	-0.032742	-0.077103	-0.024676	0.022269
-0.055371	0.114194	-0.038011	-0.059618	-0.011306	0.010698
-0.054514	0.123115	-0.035147	-0.048545	-0.004448	0.000994
-0.057331	0.121854	-0.021903	-0.038218	-0.006249	-0.007341
-0.073784	0.112527	-0.020144	-0.039286	-0.012231	-0.00437
-0.083216	0.108689	-0.016706	-0.027939	-0.007386	-0.014671
-0.093055	0.103862	-0.011554	-0.02594	0.008369	-0.010479
-0.101061	0.104464	-0.004695	-0.01738	-0.000799	-0.014409
-0.108993	0.090792	-0.002462	-0.013417	-0.012936	-0.018928
-0.108004	0.07069	-0.009263	-0.015639	-0.03208	-0.012186
-0.112061	0.05425	-0.008788	-0.011752	-0.029837	-0.017404
-0.127081	0.031625	-0.006215	-0.01163	-0.030104	-0.020971
-0.125736	0.021164	1.3e-05	0.005033	-0.019189	-0.024376
-0.132654	0.025994	-0.004089	0.011952	-0.015506	-0.026433
-0.125425	0.037012	-0.013876	0.015813	-0.010483	-0.028342
-0.116002	0.0444	-0.020683	0.009276	-0.007021	-0.024507
-0.112385	0.045295	-0.020077	0.000314	0.002891	-0.015459
-0.115892	0.03949	-0.027266	-0.005771	0.012602	-0.00966
-0.117214	0.027041	-0.027709	-0.002841	0.019304	0.001821
-0.111736	0.020401	-0.02598	0.004319	0.007744	0.010062
-0.107475	0.018888	-0.024273	0.009804	0.000457	-0.002085
-0.087424	0.034351	-0.020972	0.011461	-0.018204	-0.003042
-0.070047	0.046636	-0.025441	0.011591	-0.019064	0.001942
-0.056652	0.033389	-0.021516	0.011419	-0.006601	-0.003783
-0.049549	0.022792	-0.025446	0.010423	0.003907	-0.000449
-0.054645	0.015868	-0.028643	0.00695	0.023886	-0.007594
-0.056126	0.008982	-0.026761	0.003007	0.035125	0.00855
-0.061991	0.005312	-0.019978	-0.014437	0.043185	0.015871
-0.064009	0.013369	-0.014108	-0.025509	0.048889	0.03087
-0.058815	0.026458	-0.004662	-0.034875	0.050805	0.040203
-0.05938	0.046668	-0.011316	-0.035641	0.05827	0.033895
-0.044707	0.041132	-0.009626	-0.025637	0.057651	0.038132
-0.026656	0.037574	-0.006475	-0.024174	0.05253	0.037914
-0.011665	0.041176	-0.006337	-0.021782	0.052337	0.037066
-0.010843	0.045072	0.001611	-0.018579	0.046218	0.039218
-0.013989	0.042415	0.002985	-0.020939	0.046495	0.041958
-0.006402	0.046014	0.003615	-0.031345	0.052566	0.052433
0.002315	0.054527	0.004898	-0.039789	0.066443	0.049219
0.015045	0.070859	0.011901	-0.042452	0.064886	0.052912
0.024201	0.07169	0.00809	-0.05284	0.064567	0.05078
0.025813	0.077442	0.000562	-0.053548	0.06252	0.047695
0.025554	0.082346	0.004688	-0.046132	0.052268	0.045047
0.027427	0.090553	0.003052	-0.040282	0.052807	0.049028
0.029134	0.094081	-0.002804	-0.034983	0.050988	0.04954
0.018163	0.091751	0.005261	-0.036951	0.054843	0.052198
0.006104	0.104014	0.008423	-0.043158	0.054808	0.055747
-0.003304	0.125071	0.007509	-0.048378	0.055174	0.054573
-0.010532	0.125382	0.008539	-0.055695	0.052403	0.054325
0.005532	0.107631	0.007168	-0.061874	0.040687	0.044103
0.007131	0.081578	-0.000862	-0.056327	0.023812	0.036375
0.003078	0.053241	-0.004745	-0.039999	0.014945	0.036139
-0.001586	0.051452	-0.007514	-0.036903	0.009001	0.039213
-0.008653	0.052602	-0.017518	-0.038709	0.016069	0.035625
-0.007345	0.055061	-0.017873	-0.041784	0.016488	0.027726
-0.0006	0.052783	-0.020821	-0.041418	0.018202	0.029572
0.004149	0.044454	-0.025728	-0.050352	0.005827	0.025722
0.006762	0.031183	-0.023326	-0.053802	-0.002271	0.033084
0.003857	0.023109	-0.029029	-0.055524	-0.029365	0.026106
0.00463	0.012195	-0.033272	-0.046882	-0.045433	0.007578
0.006992	0.00518	-0.036212	-0.027704	-0.053192	-0.000113
0.007242	0.002004	-0.034916	-0.006047	-0.052086	0.000938
-0.001552	0.012047	-0.018425	-0.002126	-0.041532	0.006709
0.003273	0.017453	-0.018853	-0.005119	-0.052201	-0.004936
0.00833	0.012076	-0.018104	-0.000504	-0.054781	-0.00839
0.00766	-0.005135	-0.018578	0.002956	-0.054269	-0.003951
0.019103	-0.012263	-0.024917	0.011484	-0.055744	-0.006796
0.024018	-0.019191	-0.030938	0.009063	-0.054922	-0.015798
0.029588	-0.033676	-0.035886	0.005897	-0.053049	-0.007523
0.023883	-0.033833	-0.043647	0.000917	-0.040025	0.002028
0.01145	-0.015831	-0.048899	-0.001984	-0.035524	0.008596
0.000141	0.000665	-0.038678	-0.014127	-0.025879	0.006088
0.005455	0.013801	-0.032192	-0.023292	-0.018366	0.002116
0.021448	0.020695	-0.023625	-0.028139	-0.013672	-0.000385
0.041087	0.002301	-0.024756	-0.037402	-0.017581	-0.004532
0.047945	-0.016204	-0.031947	-0.036658	-0.021329	-0.004923
0.058478	-0.045394	-0.035707	-0.044933	-0.01109	0.000845
0.063278	-0.044302	-0.044565	-0.049536	0.005716	0.005195
0.050817	-0.036882	-0.048134	-0.051849	0.013057	0.010297
0.032087	-0.026865	-0.04531	-0.051795	0.02028	0.013328
0.021904	-0.007267	-0.030654	-0.052197	0.022257	0.014947
0.021573	0.003228	-0.02714	-0.054508	0.021201	0.015072
0.040916	-0.001487	-0.031246	-0.05461	0.023055	0.021693
0.056148	-0.02498	-0.017309	-0.061837	0.022018	0.028751
0.06888	-0.028019	-0.014135	-0.066051	0.028256	0.040828
0.076625	-0.019085	-0.000583	-0.061188	0.027199	0.047948
0.077178	-0.007979	0.004608	-0.052462	0.027522	0.055836
0.080009	0.006148	-0.001266	-0.049134	0.014673	0.05701
0.086846	0.013037	0.004508	-0.053954	0.009654	0.048463
0.103485	0.010911	0.011132	-0.044589	-0.006328	0.038005
0.113126	-0.004396	0.001768	0.003825	-0.027429	0.018229
0.109122	-0.019074	-0.003589	0.053014	-0.046147	0.025222
0.104905	-0.017331	-0.007167	0.082034	-0.034258	0.027094
0.100579	-0.001636	-0.000798	0.090769	-0.028222	0.03636
0.103253	0.002628	1e-06	0.092289	-0.022394	0.022938
0.113962	0.017911	0.005975	0.096513	-0.026136	0.013459
0.122154	0.029053	0.035443	0.101562	-0.031236	0.020074
0.136242	0.03739	0.044973	0.106207	-0.042941	0.008609
0.152068	0.023535	0.039752	0.084942	-0.0392	0.00728
0.16808	-0.000759	0.033936	0.069058	-0.024372	0.014728
0.171861	-0.036551	0.029319	0.056026	-0.005942	0.019436
0.163067	-0.04339	0.015849	0.050227	-0.005106	0.021701
0.155079	-0.047406	0.023717	0.034158	-0.01311	0.021763
0.149375	-0.024549	0.021576	0.026745	-0.01827	0.020716
0.149735	-0.004306	0.025178	0.018521	-0.024834	0.0218
0.143017	0.007144	0.020092	0.013926	-0.01819	0.023517
0.144607	0.012879	0.023295	-0.000667	-0.012969	0.018371
0.14487	-0.002488	0.02184	-0.013119	-0.002668	0.017606
0.143714	-0.005298	0.005842	-0.021826	0.00905	0.016908
0.129695	-0.009243	0.007921	-0.025341	0.004734	0.018521
0.116268	-0.005216	0.012833	-0.022888	0.008275	0.018177
0.114274	-0.000793	0.022977	-0.024652	0.011608	0.019307
0.112653	-0.009024	0.023134	-0.035481	0.006733	0.012323
0.10185	-0.030229	0.017514	-0.034084	0.002432	0.015237
0.088897	-0.031454	0.018846	-0.039804	-0.002656	0.014345
0.083701	-0.035459	0.011421	-0.039145	-0.000323	0.022135
0.068908	-0.028589	0.015274	-0.032544	-0.008751	0.027704
0.05613	-0.027266	0.012527	-0.027977	-0.007579	0.030772
0.036193	-0.016198	0.008099	-0.022368	-0.002034	0.027176
0.026215	-0.015401	0.014033	-0.015061	-0.002431	0.020746
0.021631	-0.002505	0.0112	-0.011492	-0.005842	0.021582
0.015408	-0.004398	0.002035	-0.01574	-0.010139	0.017247
0.012126	-0.005688	0.001665	-0.01328	-0.015992	0.008781
0.006525	-0.0164	0.00502	-0.010281	-0.02106	0.008264
0.004058	-0.0236	-0.00473	-0.002073	-0.02314	0.001955
-0.002508	-0.012345	-0.001649	0.008122	-0.023608	0.002806
0.003796	-0.015125	0.000949	0.01179	-0.029124	-0.000148
-0.002262	-0.013235	0.007003	0.012526	-0.029506	-0.00467
-0.00817	-0.008518	-0.003713	0.019535	-0.031951	-0.001096
-0.013456	-0.002913	0.005919	0.02731	-0.027141	-0.002558
-0.0236	0.006119	0.006838	0.022585	-0.026686	-0.001382
-0.028642	0.006059	0.010918	0.019094	-0.022526	0.004181
-0.031525	-0.003814	0.010134	0.020779	-0.029969	0.00408
-0.036334	0.002252	0.012854	0.02379	-0.024156	0.00387
-0.040043	-0.010618	0.014315	0.027428	-0.018214	0.004315
-0.043711	-0.016782	0.015645	0.032466	-0.014384	0.004761
-0.047168	-0.014833	0.015399	0.039646	-0.009163	0.002484
-0.042591	-0.013664	0.016657	0.040183	-0.012799	0.000991
-0.052323	0.000845	0.013284	0.03574	-0.007136	-0.007019
-0.057917	0.008783	0.021658	0.023839	-0.023318	-0.008544
-0.059785	0.013395	0.02294	0.017551	-0.032117	-0.004915
-0.060266	0.007541	0.024442	0.012733	-0.017531	-0.006475
-0.062102	0.001553	0.026	0.025105	-0.01661	-0.00252
-0.058651	-0.001689	0.01448	0.030083	-0.006862	0.001193
-0.058113	0.001949	0.018072	0.033044	-0.003794	-0.002256
-0.056806	0.003407	0.013669	0.033665	-0.010979	-0.003395
-0.063328	0.011658	0.014202	0.036549	-0.019717	-0.00872
-0.05887	0.014444	0.01569	0.031064	-0.022615	-0.001867
-0.058436	0.024989	0.008441	0.027219	-0.032041	-0.00298
-0.056162	0.014249	0.010237	0.021865	-0.036262	-0.003517
-0.05213	0.012078	0.007641	0.018821	-0.033806	-0.010698
-0.049552	0.007039	0.010166	0.018274	-0.030371	-0.004907
-0.049639	0.006447	0.009703	0.016278	-0.02099	-0.002177
-0.045955	0.007366	0.013597	0.01443	-0.019542	-0.007473
-0.050158	0.00773	0.013777	0.017892	-0.015085	0.002649
-0.050521	0.013055	0.009593	0.009965	-0.002735	0.001652
-0.045152	0.010259	0.007737	0.01864	0.000118	0.004111
-0.041871	0.008906	0.00587	0.024422	-0.005066	0.003686
-0.04215	0.007566	0.001805	0.021454	-0.015331	0.002343
-0.041493	0.01051	-0.003725	0.019329	-0.01608	-0.002738
-0.03584	0.006065	-0.006211	0.011372	-0.021821	-0.006617
-0.023506	0.005209	-0.011617	0.005592	-0.020934	-0.009831
-0.024865	0.014165	-0.01072	0.000344	-0.01993	-0.005858
-0.019039	0.012698	-0.01326	-0.005684	-0.00796	0.000182
-0.019573	0.01939	-0.011577	-0.008914	0.001097	0.010683
-0.013489	0.024366	-0.010497	-0.010541	0.006433	0.01263
-0.019849	0.022864	-0.010864	-0.014429	0.007369	0.016777
-0.01524	0.021728	-0.011084	-0.021176	0.001014	0.018713
-0.017268	0.01248	-0.017035	-0.026423	-0.001689	0.018475
-0.015672	0.006092	-0.009871	-0.027983	-0.009428	0.016105
-0.010226	0.005324	-0.00925	-0.035239	-0.006929	0.011259
-0.008469	0.003946	7.2e-05	-0.030808	-0.01094	0.008807
-0.004432	0.005317	-0.001516	-0.032446	-0.006853	0.016269
0.002395	0.00299	-0.005234	-0.022224	-0.003531	0.01604
0.006072	-0.004216	-0.008994	-0.029929	-0.003167	0.006642
0.010364	-0.009856	-0.015732	-0.026943	-0.011492	0.006251
0.010203	-0.007899	-0.014659	-0.033516	-0.010277	0.011293
0.015078	-0.00449	-0.018694	-0.036226	-0.018388	0.009716
0.010243	-0.003741	-0.020635	-0.046097	-0.013974	0.006224
0.012577	-0.000318	-0.021052	-0.048167	-0.010068	0.009273
0.01122	0.008829	-0.014223	-0.047298	-0.013985	0.007907
0.019794	0.002136	-0.01431	-0.044673	-0.011087	0.01659
0.022362	-0.007484	-0.013657	-0.044193	-0.002149	0.019904
0.026361	-0.00915	-0.018905	-0.037328	0.004058	0.025445
0.021262	-0.016273	-0.023523	-0.043269	4.1e-05	-0.016543
0.015937	-0.019393	-0.016648	-0.061704	-0.015585	0.015744
0.014188	-0.021797	-0.017788	-0.078854	-0.029653	0.019591
0.010951	-0.017529	-0.009569	-0.099933	-0.013751	0.033282
0.012733	-0.015591	-0.011472	-0.101705	0.011476	0.001629
0.012878	-0.014345	-0.017764	-0.093071	0.026261	0.032711
0.020681	-0.021138	-0.019574	-0.0981	0.025453	-0.001774
0.013845	-0.020211	-0.010722	-0.115515	0.007515	0.000845
0.017361	-0.012263	-0.009848	-0.122899	-0.000824	0.009319
0.023456	-0.014375	-0.000892	-0.111604	0.027959	0.02254
0.026704	-0.010432	-0.000832	-0.075763	0.069753	0.038687
0.0364	-0.000395	0.007109	-0.064913	0.094315	0.038751
0.045027	0.001252	0.003353	-0.076176	0.082744	0.038644
0.05483	0.002699	-0.001308	-0.106041	0.042329	0.045677
0.070128	0.002486	0.004086	-0.108798	0.017286	0.03053
0.097062	0.009613	-7.2e-05	-0.097416	0.013785	0.030644
0.131725	0.013756	-0.005634	-0.096506	0.017521	0.042899
0.150941	0.02445	-0.017166	-0.100542	0.01615	0.03436
0.161836	0.032901	-0.0185	-0.098406	0.013562	0.029703
0.166729	0.034456	-0.017494	-0.082709	0.011979	0.049558
0.172943	0.022421	-0.012542	-0.061908	0.033173	0.006144
0.181553	0.012314	-0.009659	-0.035766	0.066775	0.025231
0.188492	-0.006659	-0.00155	-0.036111	0.072971	0.025581
0.197878	-0.011321	-0.003714	-0.041941	0.063475	0.018379
0.210725	-0.014518	-0.001532	-0.049336	0.051691	0.016481
0.218314	-0.0183	0.004953	-0.046896	0.043638	0.025055
0.218548	-0.023345	0.010628	-0.046926	0.045033	0.014636
0.216719	-0.021088	0.005267	-0.045553	0.047883	0.001431
0.223459	-0.020222	0.005737	-0.041601	0.055088	-0.005755
0.223525	-0.013288	0.002372	-0.029536	0.068713	0.001439
0.215175	-0.012742	-0.000311	-0.032972	0.072575	0.010207
0.204945	-0.015923	-0.005894	-0.026199	0.085267	-0.010732
0.212112	-0.007664	-0.007146	-0.014042	0.083064	-0.017259
0.214864	0.015479	-0.013827	-0.007788	0.079868	-0.022331
0.197288	0.034359	-0.012855	0.000228	0.067506	-0.040172
0.182985	0.062214	-0.014323	-0.008161	0.062833	-0.048061
0.172082	0.069011	-0.012037	-0.000306	0.067963	-0.072132
0.170683	0.069878	-0.013393	-0.005824	0.067913	-0.072451
0.152625	0.062969	-0.012813	-0.009874	0.064648	-0.0921
0.1319	0.062074	-0.014711	-0.012279	0.066361	-0.089538
0.124409	0.088115	-0.021375	-0.011115	0.072149	-0.084847
0.123743	0.115026	-0.020953	-0.013418	0.080402	-0.086755
0.114219	0.114632	-0.027124	-0.016777	0.088028	-0.097339
0.091951	0.117562	-0.022012	-0.016648	0.072584	-0.097521
0.067328	0.119336	-0.022	-0.011291	0.05668	-0.101243
0.052564	0.112738	-0.026757	-0.001082	0.041266	-0.102708
0.04461	0.104601	-0.032874	0.004743	0.038712	-0.108871
0.024967	0.090503	-0.036265	0.005791	0.019306	-0.10449
-0.001145	0.07995	-0.041457	0.008227	0.024429	-0.101226
-0.021571	0.0606	-0.049805	0.012182	0.038036	-0.105481
-0.043705	0.041886	-0.041337	0.017503	0.037647	-0.113555
-0.053201	0.034295	-0.045891	0.024625	0.032098	-0.116083
-0.05251	0.03205	-0.049644	0.019059	0.028599	-0.116902
-0.053804	0.04338	-0.042587	0.011061	0.029304	-0.119317
-0.055857	0.037997	-0.040255	0.011531	0.030591	-0.123712
-0.055904	0.047537	-0.04432	0.017031	0.039903	-0.114116
-0.06311	0.057326	-0.053233	0.015548	0.031085	-0.107354
-0.062354	0.058534	-0.05959	0.009991	0.020867	-0.102645
-0.081131	0.060677	-0.068262	0.003204	0.00929	-0.096355
-0.092386	0.060751	-0.063049	0.002327	0.002912	-0.0818
-0.084494	0.03458	-0.066895	0.007617	0.00243	-0.068402
-0.059355	0.007566	-0.058512	0.018009	-0.004628	-0.069177
-0.024272	-0.001391	-0.06284	0.025137	-0.020323	-0.071918
-0.014387	0.03288	-0.063457	0.031251	-0.031519	-0.078887
-0.013591	0.093919	-0.071164	0.034252	-0.031504	-0.065588
-0.017938	0.150354	-0.082191	0.03092	-0.034423	-0.070625
-0.026916	0.15757	-0.090466	0.025243	-0.033798	-0.075796
-0.038134	0.12816	-0.100242	0.019322	-0.033106	-0.081755
-0.029775	0.07209	-0.111284	0.013043	-0.038075	-0.086238
-0.048654	0.033512	-0.107532	0.018287	-0.037822	-0.098379
-0.050088	0.019603	-0.108489	0.019207	-0.030122	-0.095258
-0.036165	0.046375	-0.098383	0.0223	-0.028963	-0.100654
-0.033758	0.074567	-0.084845	0.02722	-0.025555	-0.101427
-0.022218	0.101118	-0.074517	0.031434	-0.024314	-0.112001
-0.016145	0.118771	-0.059079	0.032976	-0.028774	-0.112745
-0.027399	0.102134	-0.047516	0.033626	-0.033177	-0.115195
-0.018648	0.08595	-0.054861	0.032532	-0.034485	-0.116339
-0.012212	0.063173	-0.044985	0.032592	-0.037005	-0.115973
0.002709	0.061102	-0.039166	0.031538	-0.033433	-0.109988
0.008801	0.081289	-0.062206	0.030181	-0.032388	-0.103309
0.003963	0.081584	-0.049218	0.03524	-0.035314	-0.102265
-0.01368	0.058597	-0.035427	0.037712	-0.039993	-0.095417
-0.007858	0.031129	-0.036496	0.056131	-0.050136	-0.094769
0.007733	0.014307	-0.057443	0.071316	-0.059905	-0.089234
0.027158	0.00244	-0.049581	0.078541	-0.076685	-0.091192
0.02662	-0.041302	-0.026325	0.074925	-0.085963	-0.100761
0.029745	-0.079292	-0.009128	0.070995	-0.095129	-0.099794
0.046025	-0.105204	0.002693	0.068971	-0.105561	-0.091281
0.043034	-0.08914	0.00299	0.067713	-0.103504	-0.086892
0.039814	-0.060376	-0.002215	0.068494	-0.109192	-0.081404
0.021793	-0.047598	0.006791	0.069122	-0.097176	-0.074276
-1.1e-05	-0.052608	0.031184	0.066842	-0.082064	-0.070599
0.001825	-0.040813	0.02634	0.060844	-0.079175	-0.065872
-0.005433	-0.034479	0.019662	0.058591	-0.069708	-0.065637
-0.004163	-0.027351	5.2e-05	0.05772	-0.074706	-0.063577
-0.014152	0.001591	0.012023	0.057627	-0.078131	-0.065705
-0.024373	0.044924	0.032391	0.05081	-0.073436	-0.062921
-0.031874	0.080381	0.035333	0.045216	-0.073713	-0.052818
-0.03869	0.076312	0.035079	0.043137	-0.070975	-0.039702
-0.02529	0.060652	0.010909	0.033581	-0.066803	-0.047809
-0.024874	0.050621	0.019085	0.034498	-0.061042	-0.040302
-0.029782	0.047069	0.01701	0.036907	-0.055975	-0.034855
-0.032833	0.046864	0.013041	0.040018	-0.057404	-0.029298
-0.042297	0.035746	0.010136	0.030722	-0.045638	-0.024072
-0.046327	0.021453	-0.0035	0.022717	-0.040294	-0.014327
-0.050975	0.009584	0.005148	0.013429	-0.029812	-0.012515
-0.063238	0.007198	0.009899	0.006234	-0.026529	-0.008404
-0.065444	0.01647	-0.006958	0.001118	-0.021726	-0.001278
-0.06294	0.030369	-0.031639	-0.004454	-0.014718	-0.005716
-0.053933	0.035279	-0.048984	-0.005104	-0.018528	-0.00491
-0.054321	0.040732	-0.068712	-0.00216	-0.016427	-0.00405
-0.059225	0.037328	-0.081309	0.001371	-0.012723	-0.000197
-0.057758	0.019236	-0.086033	-0.005826	-0.000948	-0.005322
-0.05769	0.000429	-0.088353	-0.013341	0.001488	0.000428
-0.064884	-0.010213	-0.084442	-0.016857	0.003893	-0.008214
-0.070235	0.002227	-0.093376	-0.014143	0.004911	-0.005161
-0.073073	0.041387	-0.102772	-0.012782	0.003674	-0.005069
-0.078865	0.053719	-0.091704	-0.013633	-0.004083	-0.004369
-0.084605	0.064956	-0.091202	-0.013803	-0.006684	-0.002982
-0.086396	0.049761	-0.088584	-0.022135	-0.006324	0.003907
-0.092535	0.034742	-0.076388	-0.025107	0.001264	0.000579
-0.0695	0.021311	-0.062516	-0.024678	0.00883	0.007337
-0.05221	0.013676	-0.053134	-0.024179	0.019957	0.012549
-0.031697	0.018823	-0.060581	-0.022552	0.020067	0.003281
-0.025186	0.01895	-0.077711	-0.025683	0.015177	0.008427
-0.023099	-0.001058	-0.06668	-0.026419	0.019017	0.004801
-0.03779	-0.014988	-0.05455	-0.026556	0.016362	0.005544
-0.046661	-0.024584	-0.03677	-0.033351	0.016717	0.008955
-0.043931	-0.0379	-0.024269	-0.030587	0.019256	0.008172
-0.024827	-0.025133	-0.010231	-0.023526	0.022555	0.009651
-0.009424	-0.010927	-0.006757	-0.021534	0.028757	0.010248
-0.001279	0.010606	-0.000541	-0.025233	0.022582	0.005672
0.000952	0.027586	-0.002161	-0.023916	0.019289	0.004809
-0.005948	0.029509	0.009434	-0.021842	0.010878	0.003199
-0.005761	0.015198	0.017067	-0.018287	0.014013	0.002247
-0.008651	-0.013618	0.022062	-0.013902	0.011302	-0.002382
-0.007557	-0.026443	0.02172	-0.011821	0.021692	-0.002151
-0.013725	-0.03324	0.023243	-0.014039	0.025475	-0.003493
-0.001827	-0.005532	0.0193	-0.019923	0.023466	-0.004179
0.006976	0.012807	0.013132	-0.013375	0.01927	-0.007398
0.018246	0.012287	0.021735	-0.012799	0.018014	-0.004962
0.020617	0.003774	0.031269	-0.014548	0.018947	0.003197
0.032149	-0.000823	0.00607	-0.007349	0.021964	0.004267
0.036073	-0.002591	0.01745	-0.005281	0.035875	0.007243
0.0211	0.007699	0.034874	0.007827	0.029356	0.006219
0.014137	0.01166	0.04336	0.006332	0.021394	0.007056
0.012025	-0.006372	0.050245	-0.005332	0.012719	0.006937
0.010648	-0.028631	0.05939	-0.019735	0.010532	0.000845
0.016355	-0.023997	0.063785	-0.016786	0.011289	-0.001265
0.012665	-0.011877	0.067137	-0.017579	0.019331	0.000749
0.020676	0.00073	0.06692	-0.015541	0.028118	0.005683
0.022012	0.001714	0.061122	-0.005501	0.027516	0.009488
0.029698	-0.009689	0.061358	-0.003998	0.022582	0.004557
0.025027	-0.01863	0.061403	-0.009811	0.011882	0.000265
0.024288	-0.016038	0.052609	-0.010063	0.00487	0.005628
0.031532	-0.010568	0.051725	-0.007264	0.001529	0.004551
0.030615	-0.011504	0.045597	0.002874	0.001143	3.9e-05
0.022494	-0.006455	0.042996	0.007841	-0.007916	-0.002371
0.020057	-0.006509	0.05069	0.011258	-0.005277	-0.001984
0.018964	-0.016891	0.046858	0.011135	-0.007017	-0.005318
0.016685	-0.014108	0.037684	0.016689	-0.010869	-0.004096
0.020231	-0.009922	0.026181	0.020025	-0.015407	-0.00221
0.024285	-0.003317	0.035464	0.024492	-0.010562	-0.015599
0.024649	0.002535	0.038821	0.02455	-0.007945	-0.026295
0.034213	-0.00494	0.046096	0.03297	0.002015	-0.023047
0.035745	-0.014483	0.048956	0.035716	0.000361	-0.026372
0.031025	-0.010936	0.039258	0.034153	-0.008432	-0.034685
0.027775	0.000721	0.042477	0.035176	-0.013429	-0.032727
0.024537	0.009267	0.028966	0.036181	-0.01254	-0.031429
0.010792	0.008623	0.03002	0.030682	-0.005104	-0.032283
0.012984	0.001812	0.032067	0.029638	-0.008573	-0.03713
0.018205	-0.001415	0.035672	0.030603	-0.010428	-0.038148
0.017444	-0.013994	0.03937	0.023548	-0.018695	-0.041348
0.0095	-0.022751	0.040759	0.026532	-0.01881	-0.041861
0.009724	-0.022828	0.044226	0.027968	-0.028915	-0.042838
0.011566	-0.01722	0.032992	0.024177	-0.028683	-0.042132
0.017698	-0.010853	0.028176	0.018839	-0.029769	-0.041142
0.008985	-0.017279	0.024782	0.015746	-0.026398	-0.045605
0.009089	-0.020801	0.025743	0.025666	-0.019269	-0.050167
0.012951	-0.025863	0.011409	0.036352	-0.017125	-0.059547
0.015383	-0.021188	0.011294	0.040109	-0.014008	-0.059441
0.025243	-0.00562	0.015348	0.049083	-0.015875	-0.068302
0.028338	-0.004642	0.016068	0.060696	-0.027043	-0.070949
0.026909	-0.018227	0.012757	0.055361	-0.035871	-0.070102
0.028514	-0.025171	0.018898	0.039824	-0.051821	-0.074239
0.01857	-0.027563	0.020537	0.034351	-0.050923	-0.078025
0.016365	-0.011173	0.015537	0.028499	-0.040494	-0.069496
0.021221	-0.013827	0.002811	0.027825	-0.029325	-0.067786
0.024596	-0.018512	-0.00704	0.032995	-0.021014	-0.071427
0.023688	-0.020085	-0.019252	0.051118	-0.021968	-0.077207
0.024919	-0.0215	-0.021349	0.067496	-0.02342	-0.08044
0.015289	-0.02041	-0.018427	0.067449	-0.037666	-0.077247
0.004438	-0.012725	-0.019858	0.05261	-0.053837	-0.075445
-0.004854	-0.001437	-0.017532	0.023164	-0.058235	-0.080249
-0.014035	0.011181	-0.017905	0.006614	-0.056034	-0.083137
-0.021956	0.006214	-0.02223	-0.00294	-0.053642	-0.083606
-0.032737	-0.003145	-0.029181	0.001564	-0.045098	-0.076421
-0.043362	-0.006577	-0.029539	0.014912	-0.032791	-0.084018
-0.043033	-0.014471	-0.031945	0.027076	-0.026096	-0.084848
-0.043488	0.005367	-0.049286	0.034052	-0.033863	-0.092663
-0.044162	0.018956	-0.047755	0.027561	-0.03871	-0.094675
-0.043423	0.026632	-0.048209	0.013535	-0.054521	-0.094327
-0.039704	0.032657	-0.045349	0.003243	-0.068252	-0.10592
-0.03664	0.034168	-0.03979	-0.011187	-0.081867	-0.106103
-0.041319	0.039931	-0.036703	-0.021764	-0.072021	-0.09422
-0.052353	0.043454	-0.032316	-0.034526	-0.058452	-0.092584
-0.047866	0.043488	-0.032239	-0.0411	-0.038948	-0.086503
-0.048172	0.041846	-0.047668	-0.039364	-0.026571	-0.073082
-0.044106	0.035019	-0.053255	-0.029674	-0.005534	-0.063193
-0.046385	0.035649	-0.043377	-0.025065	0.000832	-0.058482
-0.046322	0.020864	-0.040767	-0.022943	0.000606	-0.048686
-0.049364	0.014731	-0.042812	-0.026636	-0.003483	-0.071074
-0.044302	-0.001132	-0.047242	-0.026901	0.002703	-0.065078
-0.054066	0.000796	-0.049669	-0.04096	0.016733	-0.069349
-0.069131	0.019691	-0.051481	-0.046725	0.026367	-0.065297
-0.072159	0.042706	-0.060321	-0.05158	0.034507	-0.075875
-0.072411	0.048925	-0.069595	-0.043062	0.043419	-0.07816
-0.084245	0.04585	-0.084522	-0.04396	0.037795	-0.064513
-0.079224	0.040393	-0.080122	-0.046009	0.045775	-0.068348
-0.071703	0.032538	-0.075205	-0.060354	0.040694	-0.052987
-0.065733	0.036171	-0.073567	-0.067089	0.038377	-0.055033
-0.063573	0.049852	-0.074547	-0.076174	0.048481	-0.056757
-0.061807	0.063349	-0.075156	-0.080232	0.052202	-0.03605
-0.070065	0.068135	-0.081341	-0.073865	0.065981	-0.031169
-0.076703	0.071664	-0.061866	-0.063892	0.068692	-0.028419
-0.081161	0.076256	-0.062218	-0.065078	0.064556	-0.046291
-0.064893	0.055391	-0.070896	-0.068366	0.050148	-0.048754
-0.048057	0.040237	-0.078633	-0.081158	0.046736	-0.031946
-0.044719	0.030523	-0.0793	-0.090285	0.041895	-0.016969
-0.059631	0.035829	-0.085422	-0.088439	0.042119	-0.029974
-0.064551	0.047678	-0.084248	-0.082137	0.054244	-0.024498
-0.071169	0.061026	-0.088178	-0.074365	0.065561	-0.026331
-0.06397	0.054538	-0.088953	-0.081036	0.067281	-0.011634
-0.066323	0.024938	-0.096977	-0.08339	0.079006	0.002361
-0.063072	0.00848	-0.09429	-0.081195	0.082503	0.011273
-0.052434	0.018111	-0.092638	-0.08968	0.076271	0.019005
-0.046742	0.02347	-0.091896	-0.078683	0.074847	0.012457
-0.045183	0.03475	-0.087111	-0.078665	0.070459	0.012576
-0.058284	0.039195	-0.059294	-0.063911	0.065239	0.010592
-0.066909	0.057717	-0.057735	-0.070168	0.070821	0.009958
-0.059439	0.10139	-0.062302	-0.066997	0.06901	0.013782
-0.043527	0.120431	-0.067702	-0.075721	0.080909	0.033073
-0.040899	0.115182	-0.078394	-0.065642	0.094671	0.04105
-0.033595	0.110741	-0.081988	-0.062559	0.092112	0.053148
-0.033191	0.103551	-0.086464	-0.061635	0.081947	0.049106
-0.025168	0.099948	-0.091176	-0.067996	0.086941	0.05695
-0.01319	0.073827	-0.084318	-0.074116	0.085966	0.063224
-0.000364	0.043899	-0.08565	-0.074312	0.081164	0.073962
0.008418	0.03594	-0.078127	-0.072792	0.077424	0.059291
0.013268	0.066494	-0.071416	-0.074221	0.065531	0.058984
0.025566	0.12523	-0.06024	-0.076728	0.057059	0.056365
0.041579	0.149352	-0.058327	-0.08365	0.053607	0.069396
0.059185	0.138897	-0.059072	-0.089177	0.052947	0.071277
0.071258	0.109397	-0.062799	-0.089524	0.056543	0.059849
0.078794	0.07873	-0.070644	-0.087307	0.04934	0.073645
0.074756	0.068581	-0.0729	-0.092281	0.048406	0.068327
0.087194	0.097388	-0.064382	-0.079446	0.048727	0.064858
0.095061	0.127097	-0.054056	-0.08815	0.043726	0.061633
0.108275	0.152011	-0.038841	-0.084212	0.034065	0.058179
0.124111	0.137916	-0.04434	-0.085471	0.028595	0.064875
0.13272	0.127199	-0.04413	-0.089978	0.004789	0.065708
0.145894	0.124131	-0.044051	-0.095061	-0.008034	0.069859
0.154689	0.118089	-0.055832	-0.093375	-0.009786	0.073059
0.170403	0.105811	-0.054097	-0.085735	0.004586	0.078252
0.171282	0.082354	-0.065858	-0.076477	0.012362	0.08273
0.160011	0.071538	-0.070171	-0.075043	0.01476	0.058068
0.154646	0.084062	-0.06111	-0.066261	0.006268	0.056973
0.150613	0.108864	-0.05665	-0.063489	-0.005196	0.060932
0.15757	0.126761	-0.041164	-0.068313	-0.011553	0.052179
0.174451	0.12402	-0.045642	-0.066635	-0.00539	0.047681
0.189033	0.089659	-0.045484	-0.063573	0.00532	0.045162
0.200451	0.054003	-0.046331	-0.056481	0.01619	0.052793
0.198058	0.039716	-0.037848	-0.048351	0.015979	0.04827
0.201793	0.055665	-0.048296	-0.05291	0.003836	0.029902
0.197749	0.068844	-0.058572	-0.049779	-0.006213	0.02349
0.17888	0.095058	-0.06508	-0.05002	-0.01495	0.011237
0.165109	0.107949	-0.059811	-0.052676	-0.026592	0.009829
0.164013	0.100351	-0.046038	-0.04741	-0.022974	0.007885
0.177539	0.077672	-0.030192	-0.048139	-0.022963	0.010876
0.195591	0.044509	-0.013177	-0.041425	-0.01066	0.008229
0.212649	0.027429	-0.014417	-0.05299	-0.010056	0.009574
0.224246	0.014859	-0.015172	-0.056633	-0.014503	0.01327
0.22812	0.01524	-0.026639	-0.057974	-0.019496	0.013138
0.218567	0.006525	-0.038577	-0.057193	-0.017026	0.021478
0.205832	-0.015019	-0.057446	-0.050199	-0.01232	0.018172
0.173269	-0.008132	-0.064133	-0.046311	-0.008308	0.026366
0.142033	0.006223	-0.050136	-0.042767	-0.011711	0.020123
0.125555	0.036377	-0.024568	-0.041547	-0.009277	0.01816
0.127227	0.052006	-0.00773	-0.038292	-0.009777	0.021386
0.150474	0.043695	-0.010135	-0.037132	-0.012573	0.023919
0.170717	0.010503	-0.011885	-0.041517	-0.009789	0.022096
0.184639	-0.021246	-0.01664	-0.042885	-0.002064	0.024047
0.181694	-0.040666	-0.029139	-0.046886	0.000544	0.025846
0.167428	-0.04784	-0.037854	-0.050706	0.001752	0.02967
0.135905	-0.03399	-0.032741	-0.053006	-0.000584	0.037739
0.117783	-0.026559	-0.026856	-0.054314	0.000786	0.03913
0.113251	-0.019553	-0.015634	-0.057671	-0.001411	0.043232
0.118672	-0.022834	-0.011208	-0.048891	0.003656	0.037313
0.130199	-0.039069	-0.005621	-0.050758	0.002129	0.028198
0.135536	-0.055122	0.002844	-0.048374	0.009331	0.032197
0.139245	-0.059201	-0.001301	-0.041391	0.014892	0.033535
0.135122	-0.055042	0.002148	-0.044189	0.020243	0.027463
0.118812	-0.050105	-0.003442	-0.034502	0.021076	0.02689
0.099937	-0.037364	0.008949	-0.033845	0.017347	0.019636
0.085969	-0.033756	0.007045	-0.029048	0.00565	0.02917
0.079378	-0.022678	0.011891	-0.029796	-0.003087	0.035492
0.082584	-0.029688	0.017235	-0.021375	-0.010941	0.033756
0.094464	-0.030577	0.018386	-0.017367	-0.017778	0.040278
0.089023	-0.032944	0.031695	0.002243	-0.01067	0.03894
0.093873	-0.049732	0.032759	0.011142	-0.007812	0.037862
0.088214	-0.051944	0.034865	0.015997	-0.003491	0.033642
0.072822	-0.044745	0.029318	0.018277	-0.008743	0.02648
0.056566	-0.025496	0.019121	0.021278	-0.014775	0.025882
0.048709	-0.004634	0.016899	0.017899	-0.011337	0.023551
0.038506	0.013229	0.016208	0.022227	-0.010858	0.011906
0.034879	0.028367	0.018708	0.022023	-0.011775	0.010971
0.034255	0.038558	0.023698	0.024007	-0.004669	0.01219
0.040353	0.045099	0.021033	0.021239	-0.005643	0.006744
0.042728	0.048521	0.008295	0.025197	-0.005262	3.3e-05
0.033794	0.045229	0.008497	0.045042	-0.012907	-0.004743
0.021344	0.055447	0.013464	0.047845	-0.014078	-0.004007
0.017927	0.079979	0.013287	0.046341	-0.015408	-0.007581
0.026721	0.091637	0.01348	0.038887	-0.019727	-0.007566
0.030309	0.096391	0.013921	0.038828	-0.027742	-0.013846
0.027072	0.088466	0.013925	0.035612	-0.027695	-0.015151
0.029667	0.080037	0.009084	0.037951	-0.031782	-0.012098
0.030758	0.072899	0.005781	0.035874	-0.031987	-0.011568
0.027352	0.065778	0.012695	0.041689	-0.021159	-0.012397
0.01867	0.054774	0.011764	0.04658	-0.019715	-0.00816
0.014834	0.047876	0.021905	0.046397	-0.01329	-0.009016
0.010781	0.035537	0.023535	0.046725	-0.013461	-0.006806
0.010098	0.015667	0.026107	0.057279	-0.005015	-0.00644
0.017451	0.004387	0.030855	0.062763	-0.005441	-0.008925
0.015933	-0.005216	0.026722	0.057467	-0.006021	-0.018083
0.010577	-0.002763	0.029581	0.060533	-0.012434	-0.016737
0.001283	0.002043	0.02651	0.051178	-0.019563	-0.018577
-0.006337	0.003176	0.024246	0.044443	-0.016375	-0.014621
-0.014548	-0.004449	0.023559	0.043429	-0.013772	-0.009895
-0.019922	0.002504	0.030738	0.03606	-0.008317	-0.016901
-0.015148	0.014164	0.028555	0.039199	-0.002045	-0.012735
-0.002556	0.026996	0.022834	0.04153	-0.007341	-0.015058
0.008839	0.029662	0.026671	0.040532	-0.008879	-0.008753
0.01345	0.025605	0.029171	0.041887	-0.00672	-0.014782
0.008356	0.019923	0.030283	0.050168	-0.005982	-0.011852
0.009768	0.025228	0.027927	0.056961	0.005655	-0.014008
0.010552	0.016179	0.026671	0.054699	0.000536	-0.01039
0.01385	0.006793	0.032103	0.05104	-0.004682	-0.0125
0.0162	0.000671	0.029591	0.043585	-0.013503	-0.012489
0.012408	-0.007714	0.022684	0.045994	-0.011315	-0.006444
0.019254	-0.014096	0.023056	0.046983	-0.007676	-0.008373
0.020201	-0.014433	0.029734	0.055429	-0.003186	0.000112
0.024948	-0.01714	0.019645	0.059541	0.004258	0.001218
0.039749	-0.020613	0.014597	0.06938	0.005817	0.002596
0.04466	-0.037223	0.005606	0.067125	0.002834	-0.004925
0.037831	-0.047759	0.000371	0.070624	-0.012643	-0.011386
0.03617	-0.040456	-0.006784	0.060752	-0.02593	-0.013035
0.031417	-0.022804	0.001094	0.045654	-0.029701	-0.016286
0.029692	-0.000773	-0.003981	0.036224	-0.030315	-0.015972
0.037677	0.000712	-0.008544	0.037531	-0.021275	-0.016967
0.034595	0.006406	0.003582	0.042162	-0.014982	-0.017157
0.040829	-0.000812	-0.001545	0.04929	-0.012214	-0.010708
0.05381	-0.02785	0.017977	0.046497	-0.014593	-0.020419
0.075041	-0.055091	0.013085	0.043465	-0.016253	-0.024268
0.084105	-0.064821	0.018174	0.045415	-0.016505	-0.028632
0.086408	-0.050256	0.021006	0.04333	-0.011575	-0.023665
0.089396	-0.012474	0.01042	0.039138	-0.02112	-0.028184
0.080663	0.013264	-0.004328	0.032333	-0.026932	-0.024047
0.069649	0.031895	-0.006426	0.025295	-0.027539	-0.019953
0.055736	0.033809	-0.009536	0.022262	-0.018449	-0.009387
0.051239	0.014108	0.003127	0.018717	-0.014336	-0.006966
0.052754	-0.023834	0.013833	0.018194	-0.013138	-0.011009
0.061586	-0.043184	0.02273	0.023237	-0.014844	-0.011212
0.074044	-0.045928	0.022454	0.02012	-0.015773	-0.004417
0.085015	-0.032951	0.003589	0.013013	-0.021117	-0.008655
0.0687	-0.008195	-0.015799	0.005116	-0.017697	-0.005755
0.049661	0.020373	-0.012668	-0.005466	-0.014238	-0.00379
0.040946	0.026858	-0.017559	-0.009176	-0.017405	-0.007469
0.030801	0.004949	-0.033428	-0.01857	-0.024816	-0.007846
0.022066	-0.027152	-0.029452	-0.027083	-0.026291	-0.0084
0.013011	-0.047382	-0.027871	-0.042249	-0.021776	0.002999
0.002335	-0.043768	-0.023848	-0.049465	-0.020108	0.001294
-0.000533	-0.027505	-0.028058	-0.058669	-0.01748	0.00285
0.002742	-0.008343	-0.038088	-0.062854	-0.015284	0.015835
0.002476	0.0057	-0.044366	-0.068034	-0.006388	0.022673
-0.015918	0.010337	-0.056372	-0.07771	0.004723	0.019021
-0.037866	0.012856	-0.053011	-0.07946	0.014524	0.030626
-0.059622	0.010924	-0.044381	-0.097038	0.01916	0.028576
-0.076578	0.008042	-0.040635	-0.099386	0.021519	0.020974
-0.080854	0.000768	-0.039643	-0.113223	0.017354	0.023126
-0.076732	-0.003385	-0.044522	-0.11423	0.016807	0.019652
-0.072252	0.009658	-0.038069	-0.113578	0.023572	0.018236
-0.075505	0.028796	-0.033213	-0.108398	0.034716	0.018275
-0.079356	0.039071	-0.033238	-0.108841	0.036255	0.016816
-0.075181	0.03668	-0.032925	-0.098741	0.046846	0.006451
-0.076531	0.031891	-0.050667	-0.086102	0.046326	0.013846
-0.074927	0.026415	-0.065478	-0.08117	0.0368	0.011838
-0.078511	0.021505	-0.061562	-0.075632	0.014847	0.020815
-0.081056	0.026939	-0.049004	-0.063152	-0.016687	-0.032695
-0.073805	0.033446	-0.035454	-0.051533	-0.052672	-0.11525
-0.069872	0.041221	-0.021004	-0.039472	-0.116966	-0.156671
-0.059908	0.043507	-0.01134	-0.037052	-0.179677	-0.107809
-0.050566	0.041293	-4.6e-05	-0.034388	-0.117875	-0.045436
-0.028031	0.03365	-0.000186	-0.010052	0.042125	0.011265
-0.016298	0.033785	0.010336	0.003808	0.197299	0.083028
-0.001733	0.019468	0.010057	0.013616	0.284826	0.100953
0.017543	0.016157	0.005287	-0.004353	0.265135	0.102267
0.030826	0.008806	0.004773	-0.026702	0.177753	0.076403
0.039211	0.017573	0.004744	-0.053018	0.076501	0.045437
0.034948	0.018511	0.011986	-0.081658	-0.006892	0.023373
0.046644	0.011661	0.017366	-0.096729	-0.069436	0.009035
0.061956	0.000857	0.01782	-0.092748	-0.086252	-0.028128
0.075075	-0.002591	0.021041	-0.081978	-0.06388	-0.018303
0.088004	-0.009535	0.020537	-0.072894	-0.019333	0.010093
0.106006	-0.009884	0.014048	-0.058484	0.030273	-0.002211
0.11342	-0.013309	0.018201	-0.039749	0.060791	0.007097
0.127981	-0.016617	0.02372	-0.041164	0.0727	0.033945
0.132942	-0.019742	0.021794	-0.044941	0.049601	0.024371
0.143608	-0.014026	0.031335	-0.02883	0.020148	-0.012691
0.160756	-0.010042	0.024909	-0.019862	-0.003919	-0.007148
0.174935	0.007215	0.029866	-0.019634	-0.011157	-0.002741
0.178189	-0.001384	0.034112	-0.021983	-0.001641	-0.005173
0.183021	0.000919	0.028968	-0.029078	-0.003535	0.009492
0.18069	0.003389	0.031574	-0.042469	0.007052	0.022203
0.180536	0.015321	0.04206	-0.05015	-0.001851	0.025926
0.179032	0.009503	0.038841	-0.036293	-0.010609	0.026118
0.181495	0.003444	0.038508	-0.016033	-0.012136	0.010279
0.170492	0.001055	0.0333	-0.006186	-0.006432	0.005766
0.165308	0.018157	0.026347	-0.011588	0.001907	0.009706
0.156797	0.039053	0.018347	-0.013667	0.001919	0.00806
0.153537	0.06138	0.015205	-0.027374	0.002398	0.013514
0.147924	0.063943	0.01207	-0.037234	0.007014	0.021246
0.150246	0.054555	0.01111	-0.041552	-0.004381	0.02592
0.149012	0.048975	0.014079	-0.044425	-0.016959	0.020387
0.144796	0.037152	0.015886	-0.021577	-0.020412	0.017555
0.137974	0.042281	0.019949	0.007643	0.001694	0.00052
0.119651	0.050384	0.021378	0.010911	0.019458	0.006648
0.092021	0.051698	0.013884	0.00627	0.033042	-0.013294
0.071913	0.056684	0.00408	0.001089	0.036746	-0.005976
0.062793	0.05811	-0.007297	-0.007227	0.02823	-0.010697
0.058239	0.060854	-0.008823	-0.01297	0.026792	0.004259
0.064726	0.051716	-0.02517	-0.019091	0.021552	0.017514
0.070476	0.042199	-0.032028	-0.019266	0.010236	0.01247
0.061095	0.033479	-0.035435	-0.018266	0.005376	0.002641
0.05864	0.022927	-0.046063	-0.009048	0.002134	-0.006217
0.061231	0.031694	-0.053246	-0.007714	-0.008063	-0.011063
0.0591	0.043817	-0.051747	-0.01053	0.000911	-0.014802
0.054422	0.047376	-0.055153	-0.021595	0.011306	-0.028078
0.045842	0.050322	-0.061381	-0.036522	0.027395	-0.025109
0.034275	0.057685	-0.071894	-0.050485	0.037871	-0.023478
0.023732	0.052743	-0.076335	-0.049803	0.05138	-0.015529
0.027572	0.043875	-0.079004	-0.040013	0.06433	-0.011721
0.02991	0.037881	-0.083766	-0.028577	0.061547	-0.00718
0.023468	0.032997	-0.080534	-0.020063	0.054112	0.002871
0.02464	0.044869	-0.077365	-0.018621	0.038484	0.008009
0.019617	0.066354	-0.076312	-0.029912	0.019677	0.006515
0.021263	0.07897	-0.077729	-0.03777	0.01007	-0.003677
0.033657	0.066106	-0.057983	-0.048976	0.021545	0.010517
0.056243	0.053459	-0.05631	-0.047502	0.036341	-0.00988
0.072854	0.047019	-0.038152	-0.053107	0.037791	-0.031912
0.077965	0.046121	-0.019331	-0.06013	0.027483	-0.029772
0.075189	0.074199	-0.028084	-0.081679	0.011788	-0.035518
0.057221	0.073645	-0.021111	-0.077311	0.014177	-0.038985
0.034881	0.064331	-0.017846	-0.069473	0.019453	-0.046608
0.016845	0.043863	-0.015879	-0.054531	0.024887	-0.035655
0.017307	0.031885	-0.018398	-0.034572	0.026603	-0.038597
0.01659	0.032234	-0.044712	-0.025148	0.024505	-0.042607
0.015417	0.040399	-0.039964	-0.028114	0.039748	-0.033207
0.012903	0.022131	-0.022258	-0.03813	0.06466	-0.039308
0.011685	-0.019389	-0.015739	-0.045934	0.062871	-0.051893
0.027092	-0.034711	-0.013047	-0.044013	0.039762	-0.057823
0.034626	-0.047276	-0.023101	-0.050056	0.006346	-0.082233
0.028956	-0.025087	-0.054434	-0.04032	-0.006198	-0.09928
0.011794	-7e-06	-0.058225	-0.027148	-0.013255	-0.105002
-0.011241	0.003329	-0.052512	-0.013757	-0.011342	-0.11326
-0.027512	-0.009102	-0.045506	-0.000535	0.011257	-0.11272
-0.021257	-0.027923	-0.059869	-0.002414	0.024597	-0.1144
-0.02386	-0.038988	-0.077687	-0.005732	0.027238	-0.110622
-0.022896	-0.027802	-0.087018	-0.000733	0.023443	-0.11043
-0.02841	0.009739	-0.10889	-0.002797	0.013279	-0.109784
-0.048216	0.023913	-0.091018	-0.00526	0.009872	-0.112786
-0.053215	0.023077	-0.077716	-0.008247	0.000154	-0.11279
-0.057223	0.008927	-0.075744	-0.002001	-0.003611	-0.117859
-0.056321	0.010074	-0.07284	0.009031	-0.010159	-0.123042
-0.066491	0.034062	-0.067088	0.022618	-0.007775	-0.127047
-0.07798	0.054242	-0.066657	0.0359	-0.008835	-0.130569
-0.076387	0.05645	-0.070254	0.039921	-0.005942	-0.125597
-0.068128	0.046003	-0.075	0.043889	0.00587	-0.127897
-0.066789	0.037727	-0.093148	0.041129	-0.006812	-0.131695
-0.079301	0.029247	-0.087888	0.046028	-0.007517	-0.130762
-0.093014	0.020691	-0.089455	0.06191	-0.013048	-0.139525
-0.104217	0.025099	-0.085631	0.067887	-0.019714	-0.136835
-0.099795	0.042182	-0.079997	0.084697	-0.031226	-0.135138
-0.096043	0.056817	-0.081234	0.100688	-0.037356	-0.134023
-0.089267	0.058581	-0.111629	0.108636	-0.052628	-0.135981
-0.078172	0.069806	-0.112076	0.119654	-0.065226	-0.141639
-0.094165	0.074036	-0.108575	0.126602	-0.073868	-0.134538
-0.103754	0.06326	-0.103405	0.117826	-0.07647	-0.141845
-0.105809	0.049757	-0.123152	0.102741	-0.070019	-0.13358
-0.116144	0.036595	-0.118444	0.092516	-0.06286	-0.124905
-0.122637	0.043615	-0.108162	0.096844	-0.052624	-0.117601
-0.125448	0.053772	-0.107785	0.102633	-0.040738	-0.11194
-0.122269	0.077413	-0.100647	0.104725	-0.038789	-0.105763
-0.124586	0.082046	-0.088727	0.097413	-0.043938	-0.102085
-0.123249	0.083316	-0.084297	0.093942	-0.049722	-0.105705
-0.123302	0.081383	-0.081414	0.089509	-0.058277	-0.100182
-0.118883	0.077561	-0.084492	0.081446	-0.066741	-0.095131
-0.125976	0.083131	-0.082973	0.073245	-0.06707	-0.086307
-0.127945	0.08471	-0.083907	0.061459	-0.062947	-0.081146
-0.123778	0.093829	-0.093866	0.043883	-0.050753	-0.078205
-0.123588	0.083107	-0.097376	0.04214	-0.043534	-0.069537
-0.120457	0.065459	-0.104685	0.042867	-0.03998	-0.071462
-0.113416	0.059141	-0.105097	0.041224	-0.029144	-0.065273
-0.107039	0.050432	-0.106666	0.039556	-0.025507	-0.058822
-0.109145	0.051986	-0.105363	0.025636	-0.031989	-0.057344
-0.103804	0.056106	-0.112695	0.012391	-0.039933	-0.053537
-0.107781	0.072067	-0.113824	0.012443	-0.040655	-0.05731
-0.107584	0.076235	-0.111149	0.013088	-0.042833	-0.055947
-0.111027	0.084071	-0.108013	0.013552	-0.043547	-0.048131
-0.107889	0.074633	-0.110514	0.017723	-0.037026	-0.043233
-0.098658	0.070627	-0.116371	0.011578	-0.027591	-0.033469
-0.097334	0.068126	-0.114117	0.002009	-0.030586	-0.031737
-0.085734	0.057329	-0.110752	-0.004811	-0.029207	-0.02414
-0.072544	0.038366	-0.115139	-0.016459	-0.035207	-0.026171
-0.053467	0.020792	-0.116018	-0.016078	-0.031755	-0.015009
-0.043455	0.026924	-0.10882	-0.009817	-0.015959	-0.006863
-0.040704	0.027474	-0.106942	-0.010018	-0.001555	-0.004068
-0.038545	0.031812	-0.108306	-0.006593	0.001208	-0.001109
-0.032885	0.032617	-0.098209	-0.00687	0.010531	0.003952
-0.028542	0.036317	-0.089656	-0.014143	0.013915	-0.000551
-0.016139	0.030294	-0.088878	-0.019453	0.016568	0.003697
0.007324	0.026894	-0.08509	-0.025299	0.012658	-1.7e-05
0.010642	0.03925	-0.074516	-0.02323	0.002169	5e-05
0.006906	0.055444	-0.073681	-0.023991	0.004664	-0.001592
0.002629	0.076168	-0.078977	-0.018787	0.005635	-0.008376
0.002798	0.101406	-0.076523	-0.017583	0.010257	-0.000925
0.008067	0.120829	-0.071137	-0.019209	0.008303	0.003435
0.01895	0.118817	-0.068957	-0.023017	0.014305	0.008412
0.038553	0.103941	-0.062565	-0.013558	0.008615	0.007203
0.061206	0.084351	-0.051398	-0.007823	0.007281	0.009518
0.082312	0.086325	-0.040913	-0.010731	0.014533	0.010715
0.088499	0.098529	-0.02974	-0.013033	0.013704	0.018309
0.095652	0.111896	-0.026467	-0.019429	0.012027	0.016955
0.094396	0.136229	-0.026322	-0.026453	0.009559	0.012552
0.088889	0.148765	-0.029313	-0.025007	0.013625	0.019055
0.087761	0.156979	-0.037585	-0.021889	0.016185	0.017463
0.083505	0.154114	-0.047272	-0.0108	0.02022	0.016811
0.083145	0.137641	-0.040663	-0.006341	0.02068	0.018189
0.102865	0.100418	-0.034802	-0.017068	0.027648	0.016345
0.121592	0.087598	-0.018854	-0.024996	0.022254	0.019017
0.126535	0.075498	-0.006697	-0.028245	0.024088	0.009485
0.124287	0.065695	0.000816	-0.035513	0.020205	0.013638
0.126661	0.071909	0.003513	-0.038168	0.013436	0.007004
0.129063	0.087209	-0.003183	-0.033143	0.016961	0.011387
0.133822	0.088424	-0.008907	-0.033776	0.028487	0.009028
0.134397	0.074084	-0.011355	-0.022706	0.025462	0.004127
0.137857	0.064986	-0.011215	-0.015427	0.024676	0.004271
0.145181	0.067488	-0.020089	-0.018493	0.016697	0.009321
0.156931	0.083187	-0.023512	-0.015714	0.003662	0.012452
0.153822	0.092578	-0.026436	-0.025263	0.003028	0.013034
0.146692	0.09315	-0.008901	-0.021127	0.003177	0.018256
0.139602	0.086554	0.000971	-0.022721	0.004829	0.01882
0.131635	0.05969	0.005528	-0.013217	0.012313	0.011517
0.140053	0.043768	0.008076	-0.019995	0.026399	0.014572
0.14631	0.029354	0.005328	-0.028065	0.020827	0.011167
0.146643	0.02573	0.014363	-0.03191	0.02113	0.012267
0.152367	0.004083	0.013078	-0.043041	0.022911	0.013226
0.159044	0.001477	-0.007658	-0.047557	0.024726	0.010697
0.155824	0.004309	-0.005119	-0.050681	0.025108	0.010347
0.144224	0.004354	0.009287	-0.051645	0.021886	0.010111
0.140041	0.011382	0.014183	-0.045961	0.033173	0.006396
0.133915	0.000973	0.035952	-0.040284	0.041565	0.002645
0.136053	-0.002002	0.041795	-0.0261	0.040614	0.005741
0.142594	-0.001599	0.04033	-0.022784	0.031771	0.004419
0.14448	-0.011006	0.03577	-0.033293	0.01648	0.000741
0.14551	-0.020595	0.022087	-0.036577	0.015056	-0.002041
0.141046	-0.03588	0.00866	-0.031778	0.023817	-0.008296
0.136472	-0.042346	-0.007548	-0.032844	0.026056	-0.013277
0.124407	-0.033975	-0.020176	-0.013683	0.032683	-0.012729
0.115637	-0.016284	-0.004111	0.001027	0.027042	-0.010796
0.099494	0.005613	0.03019	0.008012	0.019214	-0.020597
0.095598	0.034875	0.037372	-0.00449	0.012298	-0.011127
0.101496	0.03218	0.054	-0.011585	0.003923	-0.015155
0.105674	-0.007348	0.052307	-0.012393	0.005066	-0.009704
0.112897	-0.049935	0.028807	-0.009248	0.010542	-0.016632
0.105174	-0.091926	0.009685	-0.000222	0.017509	-0.027035
0.099878	-0.093833	0.003211	0.012276	0.023109	-0.032883
0.093276	-0.06233	0.007325	0.022735	0.014942	-0.046552
0.092002	-0.013552	0.005135	0.017253	0.002584	-0.037197
0.098641	0.028662	0.008859	0.008335	-0.013382	-0.037858
0.093175	0.042266	0.022487	-0.001984	-0.030734	-0.04341
0.096411	0.028484	0.035595	-0.008326	-0.030478	-0.036573
0.101349	-0.003234	0.036423	-0.006553	-0.026552	-0.035404
0.105109	-0.039176	0.033988	-0.003241	-0.011648	-0.039404
0.108508	-0.058914	0.040077	0.018212	-0.009741	-0.044271
0.115605	-0.044733	0.022252	0.01997	-0.01795	-0.049481
0.121599	-0.032835	0.008114	0.02783	-0.017514	-0.065996
0.118484	-0.027615	-0.015417	0.034874	-0.024906	-0.053356
0.100468	-0.021974	-0.025707	0.033451	-0.032244	-0.053945
0.077882	-0.012791	-0.004257	0.023337	-0.043916	-0.058227
0.067374	0.005784	0.018962	0.013021	-0.043167	-0.056052
0.061912	0.02812	0.03266	0.012968	-0.035181	-0.056635
0.07549	0.0203	0.031554	0.015065	-0.031556	-0.056476
0.090114	0.003554	0.023753	0.014936	-0.039573	-0.05493
0.092185	-0.02839	0.024837	0.012785	-0.039636	-0.059351
0.100391	-0.0529	0.00531	0.026377	-0.036782	-0.052676
0.101628	-0.083982	-0.010537	0.03873	-0.029679	-0.052028
0.098073	-0.075325	-0.008073	0.048181	-0.022631	-0.051399
0.086875	-0.036106	0.003543	0.060005	-0.012032	-0.057887
0.073908	0.015124	0.007545	0.065069	-0.008076	-0.054269
0.077438	0.033043	0.015099	0.067296	-0.020217	-0.052105
0.074609	0.030765	0.029047	0.050802	-0.053523	-0.058784
0.07835	0.023752	0.033467	0.0282	-0.072206	-0.055561
0.082768	0.018094	0.022271	0.008478	-0.071263	-0.048435
0.087261	0.006676	0.023498	0.008597	-0.055106	-0.045662
0.081219	0.003174	0.02065	0.020154	-0.024375	-0.034131
0.078445	0.009705	0.015899	0.036409	-0.006843	-0.034719
0.073667	0.019876	0.017251	0.048255	0.001923	-0.034433
0.069943	0.037624	0.01611	0.047063	-0.001023	-0.037724
0.070688	0.042973	0.017246	0.03932	-0.018563	-0.042923
0.071204	0.051075	0.028625	0.025696	-0.039008	-0.048673
0.070154	0.057604	0.027281	0.021205	-0.05426	-0.044034
0.070241	0.05873	0.026485	0.010953	-0.056347	-0.04273
0.060482	0.055642	0.027432	0.00583	-0.056865	-0.045755
0.064164	0.045437	0.031574	0.009899	-0.040546	-0.040016
0.06515	0.022705	0.026321	0.0265	-0.023486	-0.041324
0.06693	-0.006476	0.022397	0.032297	-0.009439	-0.045747
0.053001	-0.026231	0.016405	0.036422	0.002375	-0.042663
0.046019	-0.032402	0.015686	0.034668	0.000257	-0.037882
0.043717	-0.03173	0.005795	0.027879	-0.020749	-0.040083
0.03484	-0.029196	0.008634	0.021542	-0.034351	-0.036352
0.028083	-0.03268	0.001227	0.027336	-0.036125	-0.028065
0.026198	-0.038385	-0.002673	0.028867	-0.023301	-0.026488
0.022764	-0.035844	-0.006966	0.042034	-0.011881	-0.028153
0.015277	-0.039622	-0.016602	0.058522	0.003258	-0.021579
0.009383	-0.050204	-0.009067	0.072262	0.010335	-0.022238
0.007995	-0.04774	-0.012026	0.069895	0.004277	-0.020891
0.004055	-0.044422	-0.009361	0.047307	-0.017826	-0.02984
0.013615	-0.037899	-0.008079	0.013855	-0.032692	-0.043294
0.014064	-0.034595	-0.011059	-0.008447	-0.032884	-0.039913
0.016797	-0.034459	-0.003704	-0.009752	-0.033019	-0.032609
0.012908	-0.050482	-0.013667	-0.002984	-0.012758	-0.028952
0.011315	-0.060893	0.00153	0.010176	-0.001132	-0.02292
0.006791	-0.055749	0.000281	0.029087	0.012694	-0.018043
0.002662	-0.046627	0.003848	0.044114	0.023571	-0.007812
0.013446	-0.03172	0.013895	0.053176	0.020365	-0.021981
0.019762	-0.010339	0.014387	0.046741	0.004719	-0.031092
0.027922	0.013514	0.010737	0.028525	-0.01166	-0.039547
0.032319	0.019619	0.015519	0.008686	-0.022941	-0.043018
0.043467	0.010553	0.008416	-0.000342	-0.026049	-0.046473
0.046135	-0.00561	0.015905	-0.003338	-0.014304	-0.034896
0.039523	-0.001828	0.014242	0.002518	0.003367	-0.031296
0.05113	0.016978	0.00671	0.005741	0.024052	-0.014661
0.057755	0.023606	0.002139	0.007579	0.035875	-0.00494
0.060612	0.036112	0.001141	0.000287	0.035067	-0.010943
0.059432	0.038967	-0.002526	-0.004305	0.030499	-0.01425
0.053547	0.038774	0.004937	-0.011901	0.01501	-0.020285
0.057159	0.045947	0.006899	-0.016107	0.006206	-0.02269
0.062848	0.052655	-0.000302	-0.023912	0.006185	-0.029718
0.055107	0.055275	0.003381	-0.02606	0.0092	-0.033901
0.05158	0.05039	0.001428	-0.029325	0.026126	-0.024532
0.045509	0.032526	-0.001922	-0.030723	0.034911	-0.030411
0.04106	0.021407	-0.006252	-0.032377	0.039962	-0.028151
0.034124	0.039762	0.004208	-0.039331	0.050708	-0.022122
0.025192	0.06667	0.00885	-0.042611	0.042408	-0.02291
0.022442	0.076943	0.019212	-0.048897	0.043488	-0.024384
0.009193	0.071357	0.021434	-0.049494	0.033627	-0.023486
-0.005871	0.05027	0.035678	-0.056686	0.028176	-0.021544
-0.015594	0.034709	0.038328	-0.063245	0.023503	-0.014789
-0.031186	0.014995	0.032826	-0.0643	0.026801	-0.02132
-0.042006	0.009589	0.036962	-0.062839	0.040398	-0.011409
-0.059562	0.022871	0.041943	-0.070848	0.048878	-0.004595
-0.070406	0.036811	0.048334	-0.07252	0.052284	0.003969
-0.07522	0.050242	0.049891	-0.07432	0.055734	0.012523
-0.07284	0.059375	0.059252	-0.06964	0.054695	-0.010593
-0.083279	0.044834	0.061887	-0.065004	0.05806	-0.013814
-0.072092	0.017768	0.060094	-0.072955	0.05052	-0.016455
-0.072483	-0.003727	0.059382	-0.085455	0.045167	-0.012803
-0.069038	-0.020176	0.058017	-0.093221	0.040758	0.007192
-0.064156	0.0013	0.059261	-0.087355	0.050117	-0.018711
-0.057029	0.022358	0.064584	-0.068349	0.066919	-0.025432
-0.053905	0.06048	0.064913	-0.068676	0.079454	-0.033039
-0.049434	0.062891	0.062598	-0.075024	0.076019	-0.021393
-0.046886	0.050808	0.057369	-0.092642	0.082636	-0.011734
-0.039698	0.023607	0.052036	-0.107573	0.086167	-0.001693
-0.034865	0.000188	0.05248	-0.1168	0.077224	0.004358
-0.042015	0.004941	0.046483	-0.118778	0.053779	-0.00093
-0.032473	0.026603	0.058488	-0.119236	0.037848	0.00181
-0.029882	0.043896	0.063384	-0.121111	0.035214	0.006867
-0.01835	0.05467	0.064631	-0.135312	0.046539	0.013993
-0.007793	0.045192	0.066067	-0.148135	0.049799	0.011102
-0.007462	0.023109	0.064418	-0.150296	0.040828	0.007596
-0.009781	0.005326	0.058623	-0.133001	0.028337	6e-05
-0.0132	0.000259	0.054862	-0.113301	0.016015	-0.011013
-0.01543	0.010873	0.052306	-0.10704	0.009051	-0.007148
-0.019378	0.031231	0.0445	-0.105409	0.007256	-0.011481
-0.023912	0.040815	0.047789	-0.109224	0.009898	-0.012557
-0.030159	0.043434	0.04495	-0.105634	0.013477	-0.001441
-0.02499	0.043093	0.044936	-0.096455	0.017859	0.008099
-0.028993	0.033609	0.052019	-0.084579	0.017043	-0.007251
-0.032267	0.033589	0.055213	-0.069493	0.017071	-0.010553
-0.043371	0.017828	0.05535	-0.077983	0.017871	-0.006792
-0.038805	-0.002254	0.04362	-0.094919	0.020711	-0.017994
-0.031683	-0.017831	0.042055	-0.09487	0.027256	-0.017437
-0.037958	-0.035711	0.033587	-0.088838	0.036589	-0.022815
-0.037692	-0.041436	0.029019	-0.064894	0.033396	-0.01765
-0.043979	-0.035475	0.032597	-0.053576	0.04018	-0.009941
-0.041986	-0.021483	0.030861	-0.031144	0.029282	-0.012893
-0.0325	-0.000409	0.029834	-0.021911	0.00752	-0.0057
-0.029034	0.011642	0.025442	-0.009331	0.013331	-0.004759
-0.022837	0.014437	0.024377	-0.010254	0.026335	-0.005286
-0.031363	0.006863	0.022068	-0.013827	0.040632	-0.008287
-0.03049	-0.012126	0.012063	-0.021119	0.055373	-0.011324
-0.020871	-0.032119	-0.002209	-0.034489	0.066911	-0.003533
-0.011221	-0.042783	0.001994	-0.026588	0.057167	0.005454
-0.01644	-0.038743	-0.003329	-0.02406	0.033412	0.011238
-0.019773	-0.019546	-0.004898	-0.000342	0.031171	-0.009471
-0.016605	-0.018448	-0.014491	0.011662	0.03982	-0.003711
-0.015245	-0.00559	-0.014123	0.000773	0.029571	0.017294
-0.009271	0.005427	-0.010676	-0.008574	0.024248	0.015571
-0.003027	0.02162	-0.00548	-0.023578	0.028326	0.038287
0.014492	0.014841	-0.002318	-0.044726	0.03931	0.053648
0.022489	-0.032568	-0.009327	-0.049296	0.047586	0.058789
0.022963	-0.082525	-0.011408	-0.03768	0.051106	0.069621
0.025915	-0.103277	-0.02594	-0.030103	0.029713	0.066443
0.02971	-0.093942	-0.027869	-0.023232	0.011334	0.059911
0.0323	-0.05985	-0.027982	-0.017578	0.000385	0.063861
0.028473	-0.01623	-0.016264	-0.023441	0.011264	0.059906
0.033007	0.032538	-0.007201	-0.030106	0.016879	0.049389
0.037278	0.050223	0.002108	-0.034791	0.0143	0.057266
0.040504	0.037291	0.005257	-0.03267	0.012113	0.068461
0.044049	0.007316	0.0048	-0.029179	0.007812	0.048888
0.043563	-0.028545	0.000816	-0.012274	-0.012683	0.039274
0.036179	-0.052668	0.001427	-0.018193	-0.040998	0.035356
0.025236	-0.045067	0.003307	-0.025251	-0.0529	0.041759
0.016334	-0.027789	0.005309	-0.038988	-0.04828	0.0473
0.016862	-6.2e-05	0.007786	-0.056247	-0.027277	0.063181
0.023696	0.026142	0.008127	-0.062111	0.000345	0.078471
0.024533	0.047649	0.010874	-0.059587	0.018809	0.072529
0.023542	0.053694	0.001861	-0.051674	0.009938	0.075256
0.024164	0.043751	-0.002954	-0.052853	-0.020452	0.059997
0.020704	0.018261	-0.006034	-0.06611	-0.053028	0.053896
0.0172	-0.007218	-0.012091	-0.072417	-0.07506	0.045352
0.01589	-0.023424	-0.016382	-0.079684	-0.081079	0.055642
0.015556	-0.014645	-0.006153	-0.077877	-0.050918	0.064737
0.016136	-0.002597	-0.00789	-0.065965	-0.011904	0.06735
0.009102	0.034328	-0.000499	-0.057884	0.011148	0.072779
0.003848	0.041288	-0.005549	-0.058733	-0.000174	0.064411
0.002544	0.024053	-0.015039	-0.068304	-0.010882	0.055183
-0.005406	0.005373	-0.009969	-0.067447	-0.0207	0.058429
-0.00947	-0.009766	-0.013715	-0.074663	-0.010679	0.057511
-0.00767	-0.025383	-0.016184	-0.06976	0.00749	0.058872
-0.001998	-0.029575	-0.016892	-0.048947	0.027704	0.05417
0.001639	-0.022932	-0.006404	-0.044261	0.022856	0.041422
0.001296	-0.003826	-0.004167	-0.044677	0.008317	0.037541
0.004946	0.024352	-0.006255	-0.042648	0.0066	0.028817
0.01272	0.035394	-0.002174	-0.036314	-0.000253	0.028251
0.006662	0.027399	-0.003002	-0.029074	-0.005717	0.027723
0.002944	0.009782	-0.005889	-0.033906	-0.014838	0.025401
0.000175	-0.007612	-0.010387	-0.036851	-0.030431	0.017893
-0.005928	-0.017803	-0.005825	-0.031558	-0.036289	0.010197
-0.014237	-0.007382	-0.005266	-0.026219	-0.036097	0.002908
-0.017797	0.006307	-0.004584	-0.015032	-0.03347	-0.006745
-0.019075	0.011353	-0.003528	-0.007831	-0.029955	-0.007228
-0.017393	-0.019199	-0.009912	-0.0029	-0.009776	-0.008523
-0.012044	-0.030853	-0.012071	-0.009911	5e-05	0.00172
-0.006696	-0.039802	-0.007955	-0.024994	0.001098	0.018342
-0.009155	-0.039908	-0.00872	-0.034199	-0.008884	0.01403
-0.011407	-0.027791	-0.011351	-0.032409	-0.012249	0.012736
-0.010684	-0.015533	-0.014791	-0.022519	-0.016282	0.007154
-0.011505	-0.003932	-0.005862	-0.009265	-0.007801	0.01016
-0.018989	-0.007067	-0.003279	-0.003358	-0.010075	0.015706
-0.016716	-0.004343	-0.001901	-0.006002	0.010111	0.020228
-0.01779	-0.02813	-0.003772	-0.011104	0.019032	0.014066
-0.012908	-0.038809	0.002234	-0.0162	0.02251	0.006791
-0.010189	-0.041295	2.2e-05	-0.026427	0.013508	0.000949
-0.011146	-0.029601	-0.005441	-0.021317	-0.01339	0.013474
-0.012664	-0.026319	-0.004428	-0.01926	-0.016075	0.021961
-0.008088	-0.028861	0.000264	-0.00969	0.000103	0.018911
-0.01253	-0.026855	0.009163	0.010532	0.020457	0.005997
-0.012869	-0.022857	0.015168	0.032449	0.031025	-0.005882
-0.009175	-0.024161	0.015439	0.03967	0.027218	-0.009526
0.000174	-0.012549	0.025094	0.036004	0.022195	-0.009358
0.008294	-0.007846	0.021042	0.031755	0.009534	-0.003826
0.02364	-0.013522	0.017823	0.017829	-0.0013	-0.009975
0.035468	-0.019503	0.024535	0.00059	-0.018849	-0.025595
0.05129	-0.02742	0.024501	-0.019192	-0.037492	-0.031504
0.062697	-0.015225	0.02468	-0.028304	-0.056093	-0.013856
0.075863	-0.007148	0.023225	-0.046116	-0.05586	0.01238
0.070644	0.005701	0.022153	-0.047987	-0.038439	0.033368
0.076333	0.024583	0.026267	-0.048128	-0.007819	0.044677
0.080323	0.030981	0.022755	-0.032756	0.021636	0.045156
0.096489	0.003166	0.012483	-0.016802	0.030799	0.04644
0.103195	-0.0315	0.00701	-0.01043	-0.002734	0.047465
0.100812	-0.054478	0.011833	-0.018746	-0.042477	0.020844
0.108021	-0.056258	-0.000561	-0.03506	-0.069066	-0.012641
0.114136	-0.044372	0.000294	-0.05655	-0.087521	-0.023115
0.122032	-0.030754	0.002974	-0.051127	-0.088156	-0.012244
0.120315	-0.008983	0.009668	-0.032418	-0.053878	-0.016512
0.11575	0.023969	0.017717	-0.014191	-0.015481	-0.011799
0.124861	0.045594	0.01819	-0.005826	0.0187	0.029036
0.131076	0.029618	0.019818	-0.018429	0.041877	0.043892
0.136734	-0.006504	0.03303	-0.03753	0.045065	0.042149
0.143246	-0.03765	0.055275	-0.039658	0.037969	0.037322
0.157082	-0.040111	0.060191	-0.046484	0.013568	0.015561
0.175866	-0.01885	0.061874	-0.057306	-0.021693	-0.000419
0.182275	-0.003928	0.064569	-0.079806	-0.061425	0.005297
0.191294	0.018556	0.057511	-0.09785	-0.078764	-0.001912
0.186192	0.047813	0.049525	-0.0982	-0.069948	-0.000681
0.181316	0.062684	0.036862	-0.085429	-0.024849	0.014768
0.179253	0.04556	0.014663	-0.079293	0.008042	0.004345
0.17299	-0.00441	0.014404	-0.075913	0.014328	0.020477
0.164889	-0.041627	0.032792	-0.089015	0.006917	0.034462
0.168081	-0.045534	0.030506	-0.103814	0.008775	0.046807
0.174551	-0.040363	0.021353	-0.103091	0.0152	0.036505
0.170307	-0.021796	0.024647	-0.093363	0.030004	0.031609
0.161456	0.016065	0.017266	-0.101125	0.042972	0.019036
0.15169	0.065577	0.009798	-0.108893	0.044145	-0.003188
0.147738	0.08992	0.004355	-0.114678	0.030983	-0.002575
0.142311	0.052008	-0.023331	-0.111277	0.035373	0.014666
0.130793	0.033125	-0.024903	-0.099779	0.048341	0.004335
0.119352	0.028084	-0.014715	-0.084921	0.066533	0.013328
0.114868	0.045985	-0.007276	-0.080744	0.073811	0.02608
0.128217	0.083291	-0.013253	-0.075767	0.07067	0.024825
0.136188	0.113434	-0.01649	-0.072588	0.070899	0.029815
0.12918	0.13265	-0.017579	-0.070008	0.068443	0.025979
0.12067	0.147707	-0.023596	-0.065301	0.068349	0.014258
0.109788	0.149825	-0.026333	-0.056062	0.070783	0.006327
0.100678	0.137953	-0.029409	-0.045376	0.068498	0.00652
0.107292	0.118574	-0.04022	-0.037807	0.057164	-0.0072
0.100505	0.091724	-0.045561	-0.040942	0.050042	-0.019337
0.093059	0.084266	-0.048745	-0.048622	0.039107	-0.035024
0.09625	0.079187	-0.050262	-0.0474	0.035464	-0.039675
0.102859	0.085997	-0.04519	-0.040895	0.055202	-0.038616
0.101258	0.099527	-0.04803	-0.033002	0.071017	-0.051052
0.100084	0.118956	-0.036075	-0.035491	0.077867	-0.050876
0.090766	0.138948	-0.040507	-0.049256	0.076375	-0.060614
0.089757	0.144868	-0.038449	-0.04789	0.068119	-0.06645
0.078156	0.134066	-0.040197	-0.044417	0.058894	-0.073743
0.071473	0.109909	-0.052179	-0.048362	0.044367	-0.081263
0.060183	0.082351	-0.053659	-0.039232	0.034891	-0.091777
0.048452	0.07669	-0.059487	-0.024369	0.033479	-0.099238
0.048271	0.076138	-0.060058	-0.023431	0.044378	-0.10399
0.048663	0.070674	-0.062597	-0.031312	0.047062	-0.106344
0.046374	0.07845	-0.066489	-0.042421	0.049593	-0.101043
0.046401	0.094458	-0.060753	-0.041198	0.052677	-0.102143
0.039434	0.112761	-0.068515	-0.033831	0.058501	-0.097991
0.037687	0.126018	-0.070608	-0.020959	0.061325	-0.09513
0.026614	0.133713	-0.062623	0.000319	0.059003	-0.092109
0.016769	0.144853	-0.04708	0.005251	0.045701	-0.090821
0.014219	0.151787	-0.053404	0.020173	0.048864	-0.093377
0.014933	0.138214	-0.062587	0.021418	0.034937	-0.106996
0.013088	0.114766	-0.053807	0.020044	0.014362	-0.110643
-0.00241	0.106764	-0.049828	0.016229	-0.002555	-0.113272
0.008131	0.119872	-0.075062	0.015582	-0.006176	-0.112565
-0.006061	0.123757	-0.067471	0.01528	-0.000752	-0.114493
-0.007875	0.135894	-0.064229	0.035439	0.014372	-0.108187
-0.010742	0.127215	-0.0801	0.046254	0.020095	-0.093886
-0.012712	0.098472	-0.075385	0.038548	0.017674	-0.110141
-0.016787	0.044333	-0.067494	0.037302	0.022517	-0.107702
-0.019827	0.014052	-0.080356	0.025584	0.014174	-0.104494
-0.019882	0.015444	-0.085528	0.015864	-0.000795	-0.105219
-0.035354	0.012487	-0.079513	0.01184	-0.017105	-0.11579
-0.041277	0.004903	-0.085767	0.021467	-0.039506	-0.112627
-0.042533	0.003003	-0.094002	0.032773	-0.041764	-0.112848
-0.045757	0.007853	-0.094264	0.0538	-0.041441	-0.112728
-0.041885	0.001117	-0.076792	0.057157	-0.031295	-0.092374
-0.041097	0.003636	-0.078613	0.064518	-0.017523	-0.096845
-0.025939	0.021744	-0.091128	0.060016	-0.016145	-0.099613
-0.029609	0.057087	-0.078512	0.045298	-0.028587	-0.108672
-0.052591	0.063455	-0.074162	0.047247	-0.046701	-0.124936
-0.06013	0.058969	-0.084203	0.049794	-0.057141	-0.121189
-0.071739	0.027049	-0.079917	0.051048	-0.065715	-0.10911
-0.069656	0.010752	-0.098872	0.050265	-0.057261	-0.114981
-0.073664	0.03046	-0.096587	0.060614	-0.052841	-0.111503
-0.067213	0.060727	-0.097789	0.077486	-0.048934	-0.11608
-0.048506	0.077448	-0.096811	0.087324	-0.044744	-0.110713
-0.043364	0.06227	-0.090699	0.091869	-0.052668	-0.106123
-0.041649	0.04329	-0.097139	0.079149	-0.05906	-0.114244
-0.053025	-0.010078	-0.080741	0.067672	-0.067452	-0.119573
-0.069013	-0.043643	-0.073383	0.065947	-0.074923	-0.112567
-0.072038	-0.047591	-0.073695	0.07735	-0.065535	-0.110845
-0.076896	-0.022864	-0.063105	0.095353	-0.059742	-0.113013
-0.068065	-0.010797	-0.060353	0.100865	-0.053913	-0.111543
-0.062362	-0.01328	-0.057315	0.099288	-0.053179	-0.118456
-0.066059	-0.019969	-0.058467	0.095926	-0.049447	-0.114076
-0.074469	-0.010454	-0.058295	0.090925	-0.050694	-0.104971
-0.085821	-0.006507	-0.049266	0.086239	-0.050408	-0.111324
-0.079001	0.009071	-0.082783	0.077444	-0.036775	-0.104264
-0.0702	0.02198	-0.090859	0.073839	-0.02082	-0.104769
-0.064202	0.043043	-0.089559	0.075969	-0.021416	-0.106131
-0.066547	0.037907	-0.091234	0.080315	-0.014639	-0.11152
-0.065568	0.0493	-0.090359	0.085862	-0.019417	-0.108489
-0.05875	0.055989	-0.091839	0.095853	-0.031412	-0.110625
-0.061533	0.056815	-0.087788	0.086639	-0.038944	-0.103509
-0.067124	0.062435	-0.080966	0.089097	-0.040626	-0.098873
-0.06304	0.061251	-0.110235	0.088447	-0.035735	-0.086963
-0.06735	0.050148	-0.111621	0.087222	-0.024351	-0.080768
-0.077626	0.036243	-0.103474	0.080973	-0.023129	-0.078723
-0.078345	0.02207	-0.102428	0.062351	-0.021883	-0.078063
-0.082409	0.028494	-0.094548	0.051567	-0.023511	-0.072029
-0.104006	0.041862	-0.073862	0.038447	-0.01998	-0.061742
-0.120547	0.050445	-0.059998	0.036358	-0.012865	-0.055593
-0.126597	0.064958	-0.058576	0.036626	-0.003658	-0.0552
-0.112303	0.072155	-0.062215	0.031569	-0.000981	-0.046123
-0.099711	0.063845	-0.067512	0.024427	0.004559	-0.041249
-0.083942	0.069035	-0.079261	0.00577	-0.00014	-0.041511
-0.076933	0.072756	-0.095294	-0.000716	0.000974	-0.034718
-0.070546	0.057031	-0.082108	-0.017239	-0.001602	-0.033926
-0.065765	0.03464	-0.065764	-0.016923	-0.009306	-0.037694
-0.059581	0.042392	-0.069865	-0.01253	-0.011133	-0.03188
-0.052337	0.042973	-0.046274	-0.016341	-0.017324	-0.018319
-0.040055	0.037383	-0.031144	-0.016179	-0.017813	-0.016997
-0.035763	0.02946	-0.023023	-0.020573	-0.016833	-0.008012
-0.031106	0.029129	-0.048369	-0.024035	-0.013013	-0.006362
-0.035578	0.024967	-0.048778	-0.026141	-0.007041	-0.000375
-0.048143	0.024004	-0.04156	-0.028053	-0.004092	-0.000232
-0.042887	0.03708	-0.047446	-0.030102	-0.014235	0.005627
-0.030249	0.052114	-0.066535	-0.037731	-0.011336	0.002474
-0.013014	0.054897	-0.064682	-0.041766	-0.010676	0.002253
0.003646	0.038135	-0.037869	-0.055389	-0.011462	0.008083
0.02218	0.028876	-0.030927	-0.058702	-0.011542	0.009646
0.030784	0.031245	-0.023874	-0.054835	-0.003587	0.014835
0.022435	0.024552	-0.014811	-0.052525	0.000785	0.024096
0.01205	0.022222	-0.023536	-0.049268	0.008057	0.024564
0.006722	0.025125	-0.020196	-0.056892	0.005173	0.023245
0.000419	0.016393	-0.016829	-0.046461	0.005239	0.026668
0.010759	-0.004415	-0.021128	-0.039753	0.001742	0.032736
0.03054	-0.030336	-0.020962	-0.027675	0.004759	0.028604
0.035365	-0.036871	-0.013918	-0.034506	0.017259	0.024495
0.038374	-0.027345	-0.013662	-0.038463	0.020988	0.023312
0.036072	-0.000371	-0.042898	-0.035895	0.018885	0.02371
0.036157	0.022847	-0.026781	-0.040497	0.012383	0.020947
0.016509	0.037506	-0.033379	-0.048881	0.005186	0.024461
0.01236	0.062704	-0.036192	-0.045339	0.000849	0.018614
0.019785	0.077359	-0.046685	-0.043541	-0.003394	0.024115
0.046309	0.0627	-0.031023	-0.043681	0.00332	0.019843
0.075071	0.036872	-0.018353	-0.038131	0.014482	0.021199
0.08817	0.019778	-0.012718	-0.025849	0.021255	0.016747
0.071846	0.021932	-0.016792	-0.02533	0.021489	0.017755
0.050061	0.043225	-0.019011	-0.024501	0.024503	0.009275
0.034638	0.057419	-0.007464	-0.026028	0.020218	0.009382
0.02578	0.0655	-0.007367	-0.031134	0.017328	0.009282
0.027657	0.058783	-0.001013	-0.030816	0.021632	-0.002378
0.040946	0.021855	-0.004088	-0.027931	0.024526	0.000405
0.062879	0.00961	-0.007983	-0.013362	0.019425	0.002606
0.063366	0.024081	-0.005911	-0.013222	0.012103	0.000783
0.066794	0.036295	-0.012614	-0.007911	-0.002464	-0.003936
0.053507	0.054695	-0.015994	0.003256	0.001153	-0.009407
0.055839	0.051693	-0.020594	0.007087	0.015682	-0.010953
0.052332	0.054121	-0.007928	0.011078	0.018508	-0.016276
0.067609	0.04152	0.000802	0.010839	0.019039	-0.024597
0.085172	0.019294	0.001202	0.011198	0.012994	-0.027034
0.084109	0.015109	0.01212	0.008919	0.01266	-0.038274
0.068671	0.015532	0.011925	0.00873	0.010845	-0.044465
0.060588	0.013062	0.009582	0.012007	0.021442	-0.044145
0.063369	0.00624	0.007902	0.012062	0.015351	-0.032166
0.064943	0.020855	0.007007	0.002135	0.015011	-0.028294
0.073153	0.045034	0.004255	-0.012855	0.013209	-0.025938
0.075846	0.06464	0.04283	-0.018333	0.013579	-0.025538
0.083645	0.056617	0.049575	-0.016581	0.01764	-0.024921
0.087139	0.026471	0.050694	-0.018432	0.013079	-0.028681
0.086813	0.007853	0.05143	-0.016064	0.013026	-0.03076
0.072786	-0.015577	0.052309	-0.013853	0.017437	-0.028524
0.061551	-0.025795	0.03119	-0.001417	0.024119	-0.030994
0.060653	-0.029088	0.013306	0.000639	0.01635	-0.029714
0.056158	-0.019111	0.006191	-0.004666	0.015198	-0.028375
0.056903	0.002997	-0.006716	-0.024409	0.009702	-0.033705
0.05447	0.013968	-0.014049	-0.021103	0.005715	-0.031736
0.049123	0.028117	-0.013571	0.009875	0.014875	-0.032651
0.047671	0.058061	-0.001409	0.044671	0.029136	-0.042726
0.034853	0.092715	0.001645	0.072624	0.031817	-0.043907
0.025877	0.087373	0.007958	0.078819	0.015626	-0.051078
0.02415	0.062283	0.00866	0.076323	-0.017249	-0.063824
0.022567	0.02659	0.002676	0.071288	-0.039858	-0.064257
0.025842	0.012012	-0.002791	0.051763	-0.052264	-0.067379
0.029989	0.006569	-0.006509	0.033694	-0.048628	-0.070668
0.029804	0.009707	-0.012325	0.024737	-0.042748	-0.059438
0.027917	0.006892	-0.017177	0.03343	-0.03038	-0.054376
0.030506	0.021872	-0.020499	0.046682	-0.018059	-0.058368
0.024348	0.046695	-0.022139	0.050971	-0.01009	-0.055037
0.026739	0.066968	-0.011283	0.059772	-0.010875	-0.059937
0.030877	0.057668	-0.004188	0.068581	-0.015988	-0.069489
0.032782	0.042932	0.012766	0.072343	-0.015242	-0.084704
0.038648	0.029817	0.01923	0.070774	-0.017263	-0.094848
0.038276	0.026076	0.020612	0.055085	-0.028582	-0.099244
0.044972	0.0078	0.018417	0.020483	-0.039838	-0.109522
0.050225	-0.005082	0.007038	-0.007094	-0.059047	-0.11416
0.060439	-0.009392	0.00152	-0.010913	-0.046886	-0.111743
0.069071	0.003774	0.01481	-0.003648	-0.03671	-0.092944
0.062394	0.02245	0.022576	0.00717	-0.006795	-0.077416
0.057102	0.031499	0.031339	0.021708	0.007912	-0.072225
0.051945	0.037274	0.03829	0.027905	0.019161	-0.063841
0.058534	0.038036	0.043559	0.026572	0.014565	-0.055814
0.066407	0.019627	0.050021	0.008969	-0.01897	-0.048991
0.0681	0.007706	0.039745	-0.005385	-0.053889	-0.066312
0.077741	-0.0017	0.049667	-0.008034	-0.076909	-0.0646
0.076261	0.011956	0.048857	-0.002283	-0.06768	-0.054461
0.068958	0.012911	0.042237	0.002545	-0.04511	-0.042512
0.075589	0.013113	0.051068	0.015484	-0.010771	-0.041346
0.069908	0.003309	0.057151	0.018641	0.019335	-0.033841
0.067268	-0.010918	0.07664	0.024592	0.034868	-0.028075
0.074193	-0.010437	0.078288	0.032122	0.029213	-0.034127
0.078183	-0.000763	0.064187	0.004222	-0.009089	-0.031777
0.094416	0.026261	0.047126	-0.043882	-0.042301	-0.047679
0.0989	0.040884	0.035719	-0.079745	-0.042479	-0.038167
0.090216	0.038841	0.041047	-0.080793	-0.010453	-0.028329
0.086902	0.01943	0.04974	-0.070916	0.014648	-0.002291
0.078216	-0.013874	0.045797	-0.060305	0.032709	0.009342
0.0759	-0.043619	0.042046	-0.026092	0.044275	-0.003634
0.090405	-0.039852	0.032739	-0.015323	0.046547	0.004912
0.084096	-0.021131	0.031395	-0.016546	0.04862	-0.009738
0.089834	0.00801	0.046651	-0.031197	0.037522	-0.017282
0.098244	0.033401	0.060733	-0.036166	0.027015	-0.03765
0.10799	0.041612	0.044816	-0.038207	0.023061	-0.040281
0.108963	0.019381	0.033693	-0.03569	0.034447	-0.032569
0.094467	0.00548	0.023106	-0.039166	0.042888	-0.028473
0.078358	0.002687	0.023298	-0.049637	0.052041	-0.012958
0.063506	-0.000261	0.01044	-0.049984	0.055129	-0.026247
0.068403	-0.018115	-0.001428	-0.053594	0.053876	-0.006039
0.068232	-0.026506	0.021087	-0.060068	0.048622	-0.021272
0.06011	-0.006824	0.029798	-0.063618	0.048502	-0.014743
0.069447	0.028004	0.015624	-0.056344	0.043905	-0.011511
0.074122	0.053373	0.009639	-0.050199	0.050122	0.001145
0.078393	0.065261	0.013543	-0.063611	0.0576	0.007463
0.073435	0.071851	0.010943	-0.070217	0.054127	0.029818
0.063644	0.06381	-0.00572	-0.074884	0.064948	0.037419
0.061406	0.056461	-0.011134	-0.082705	0.057992	0.028948
0.057783	0.042695	-0.01266	-0.094286	0.048652	0.027559
0.048669	0.047718	0.017671	-0.098742	0.03038	0.007248
0.056973	0.054577	0.01481	-0.095334	0.02825	0.018773
0.070813	0.031119	-0.003785	-0.093804	0.021012	0.012661
0.078284	0.003959	0.001036	-0.096602	0.030587	0.028037
0.08113	-0.024704	4.2e-05	-0.097115	0.032069	0.035428
0.071191	-0.023356	-0.007916	-0.097613	0.040067	0.042548
0.067048	-0.002489	-0.021154	-0.104721	0.032804	0.052895
0.051203	0.008651	0.026142	-0.106382	0.031202	0.045173
0.049235	0.006867	0.014979	-0.122878	0.031868	0.068299
0.059115	0.002785	0.00996	-0.132191	0.034516	0.063219
0.070415	0.000971	-0.00081	-0.127166	0.03919	0.062899
0.073411	-0.012438	-0.003679	-0.127863	0.028433	0.051641
0.066192	-0.020245	-0.004218	-0.123454	0.014812	0.062234
0.063397	-0.006684	-0.017115	-0.120164	0.001176	0.060859
0.064108	0.001108	-0.002207	-0.111815	-0.003527	0.062698
0.065156	-2.2e-05	0.002719	-0.112276	-0.006521	0.065993
0.066507	-0.010616	0.012908	-0.104863	-0.004217	0.071971
0.068707	-0.024602	-0.011609	-0.11284	0.001663	0.055472
0.069607	-0.01744	0.00534	-0.11642	0.012679	0.062939
0.077004	0.010984	0.000986	-0.113373	0.019037	0.064927
0.06555	0.0498	0.001816	-0.121536	0.017193	0.078349
0.065523	0.050781	0.00959	-0.119042	0.012157	0.056947
0.059039	0.024962	0.014698	-0.117808	0.001979	0.039578
0.065275	-0.017221	0.020476	-0.107303	-0.012444	0.028728
0.07273	-0.060307	0.005016	-0.099526	-0.014122	0.032581
0.08366	-0.078587	-0.008434	-0.090339	-0.012653	0.036048
0.088356	-0.073202	0.00142	-0.093103	0.000477	0.024359
0.093717	-0.052794	0.000666	-0.100924	0.008672	0.038493
0.091065	-0.012648	0.00343	-0.105328	0.01386	0.038003
0.083556	0.017253	0.012797	-0.104073	0.014652	0.051312
0.071719	0.025478	0.035844	-0.097288	0.018954	0.053716
0.063138	0.024386	0.056161	-0.090723	0.024556	0.047248
0.067202	-0.000135	0.04171	-0.07586	0.027167	0.040097
0.090115	-0.040702	0.028436	-0.063204	0.026076	0.043678
0.104452	-0.085279	0.013522	-0.04895	0.033567	0.047253
0.104409	-0.110726	0.014889	-0.050204	0.034325	0.03735
0.106968	-0.106896	0.011924	-0.05063	0.025703	0.057165
0.101189	-0.071557	0.028732	-0.051649	0.026956	0.053716
0.093149	-0.013342	0.015145	-0.054819	0.027546	0.063041
0.083265	0.032649	0.040429	-0.044623	0.036055	0.057136
0.071875	0.034493	0.042917	-0.027359	0.039356	0.052742
0.073653	0.000371	0.035353	-0.013002	0.042338	0.038189
0.079503	-0.035364	0.032915	-0.007815	0.024035	0.027875
0.075718	-0.042136	0.021555	-0.023577	0.008421	0.022231
0.063369	-0.026	0.022199	-0.033497	0.002913	0.019634
0.063091	-0.007719	0.021398	-0.056805	0.006359	0.03239
0.045372	-0.01153	0.027167	-0.048286	0.01199	0.036332
0.025405	-0.015447	0.032303	-0.029089	0.008078	0.036148
0.01569	-0.01452	0.04484	-0.003594	-0.002664	0.029774
0.00845	-0.005223	0.051677	0.004082	-0.018822	0.018121
-0.001021	0.005869	0.056648	-0.002771	-0.040021	0.013276
-0.005071	0.00701	0.061419	-0.013015	-0.046406	0.005015
-0.009661	-0.010485	0.054372	-0.004755	-0.040121	0.009263
-0.029915	-0.031921	0.054494	0.009152	-0.014135	0.016446
-0.039947	-0.041412	0.061547	0.015089	-0.002853	0.022173
-0.040538	-0.00842	0.062796	0.011578	-0.001949	0.031513
-0.042127	0.019703	0.071997	0.02077	-0.017164	0.034733
-0.038012	0.048761	0.077978	0.022647	-0.024991	0.04341
-0.04609	0.056104	0.080421	0.030022	-0.032712	0.036772
-0.043791	0.044947	0.090501	0.043817	-0.032189	0.037272
-0.041351	0.014673	0.084082	0.062388	-0.022314	0.022635
-0.030575	-0.013123	0.077358	0.079321	-0.014778	0.016868
-0.020749	-0.020176	0.065199	0.082586	-0.020432	0.013032
-0.014408	-0.017502	0.062601	0.078732	-0.034808	0.010442
-0.009721	0.000668	0.061421	0.07123	-0.034499	0.011905
-0.008764	0.026674	0.065636	0.055155	-0.041187	0.009199
-0.013752	0.047434	0.062027	0.047103	-0.038052	0.007699
-0.0113	0.078343	0.066225	0.048054	-0.021639	-0.003323
-0.022321	0.088561	0.069363	0.045311	-0.006484	-0.01465
-0.00992	0.071436	0.072734	0.046144	0.000725	-0.02592
-0.003236	0.03861	0.06998	0.049176	-0.000847	-0.039239
0.009441	-0.005245	0.057068	0.046619	0.004089	-0.038076
0.012199	-0.031838	0.049618	0.034439	0.010962	-0.036144
0.009976	-0.046331	0.039125	0.019895	0.011199	-0.026865
-0.006738	-0.05242	0.037579	0.007778	0.010614	-0.026916
-0.00963	-0.025427	0.033481	0.006342	0.01953	-0.017305
-0.005837	-0.010794	0.035534	0.008923	0.026156	-0.019891
-0.001214	0.022757	0.044717	0.01731	0.026242	-0.015783
-0.002679	0.054707	0.048038	0.016181	0.026421	-0.004759
-0.004924	0.069182	0.058536	0.019741	0.031649	-0.000917
-0.001869	0.045394	0.056222	0.019264	0.037399	8.4e-05
-0.000609	0.006695	0.047599	0.016855	0.035724	-0.000266
-0.018367	-0.029515	0.038086	0.015204	0.033947	0.004596
-0.036865	-0.059193	0.027984	0.016766	0.024013	0.000971
-0.038423	-0.071386	0.009777	0.013821	0.003963	0.006658
-0.0435	-0.064646	-0.006019	0.011343	-0.000777	0.001284
-0.039184	-0.056757	0.001375	0.004625	0.001889	-0.00149
-0.036614	-0.02717	0.010218	0.009796	0.006104	-0.004112
-0.042364	0.023616	0.021587	0.011119	0.017669	0.006169
-0.045296	0.06044	0.023255	0.007064	0.018951	0.005489
-0.055089	0.078632	0.02279	-0.000678	0.019427	0.012084
-0.059475	0.063792	0.016233	-0.000747	0.024009	0.004556
-0.067384	0.037298	0.002417	-0.002484	0.014529	0.003889
-0.065452	0.006493	0.006962	-0.007716	-0.005992	-0.005426
-0.056447	-0.014391	0.007521	-0.00091	-0.0228	-0.00576
-0.048293	-0.026562	0.003261	0.003624	-0.031505	-0.003375
-0.030732	-0.022613	-0.003783	0.01447	-0.021904	0.003364
-0.022306	-0.012609	0.001387	0.019753	-0.012962	0.001121
-0.023359	-0.012747	-0.002126	0.026089	-0.006828	0.013399
-0.037425	-0.010164	-0.00259	0.02743	0.001366	0.019852
-0.041414	-0.024019	-0.009497	0.015456	-0.004407	0.01229
-0.0374	-0.042889	-0.02327	0.009238	-0.018087	0.009167
-0.028798	-0.045374	-0.022798	0.012879	-0.015002	0.012061
-0.035806	-0.041424	-0.028485	0.019078	-0.007519	0.020105
-0.035402	-0.016964	-0.030245	0.0218	0.00133	0.023772
-0.026646	0.001585	-0.032357	0.02872	0.015126	0.034263
-0.015804	-2e-05	-0.027552	0.030705	0.020661	0.041297
-0.017248	-0.021204	-0.020474	0.026663	0.012916	0.04182
-0.009195	0.00724	-0.018762	0.02151	-0.001432	0.043081
0.0026	0.015739	-0.021875	0.023871	-0.001951	0.04735
0.008434	-0.009559	-0.021982	0.022148	0.001202	0.049241
0.012276	-0.014609	-0.020023	0.020808	0.007296	0.046676
0.011056	0.015213	-0.025173	0.021094	0.009773	0.046298
0.010487	0.027477	-0.025856	0.014924	0.010711	0.046569
0.021621	-0.006468	-0.03231	0.023355	-4.2e-05	0.050213
0.037836	-0.061451	-0.052158	0.026843	-0.004402	0.050222
0.023555	-0.124545	-0.042908	0.03113	-0.004491	0.051781
0.003553	-0.164969	-0.032396	0.035781	-0.011262	0.046924
-0.009283	-0.113755	-0.014298	0.040519	-0.018792	0.048629
0.000801	-0.038603	0.000478	0.039229	-0.035843	0.035661
0.018473	0.004754	0.009929	0.042802	-0.051259	0.030632
0.030239	0.027672	0.018589	0.038352	-0.063593	0.022282
0.034181	0.060769	0.016473	0.040877	-0.053905	0.018214
0.026759	0.05528	0.002762	0.043969	-0.052235	0.012047
0.031776	0.016032	-0.012769	0.045655	-0.051183	0.021096
0.030482	-0.05659	-0.010093	0.041492	-0.046516	0.022017
0.029073	-0.104038	-0.014893	0.039274	-0.047674	0.023052
0.021262	-0.093898	-0.008799	0.031031	-0.048761	0.026795
0.009233	-0.065874	-0.00145	0.027137	-0.05115	0.026854
0.014987	-0.02394	-0.001695	0.027478	-0.056989	0.029025
0.008774	0.029559	0.000984	0.024875	-0.050313	0.028011
0.006134	0.049973	-0.002522	0.019252	-0.047748	0.029577
0.001323	0.04632	-0.00368	0.016475	-0.040648	0.03102
0.002744	0.008856	0.00313	0.012157	-0.024724	0.035207
0.001923	-0.006595	0.000197	0.007887	-0.013183	0.042327
0.010716	-0.018088	-0.001507	0.006208	-0.003917	0.042286
0.021874	-0.01738	0.004356	-0.004578	-0.00126	0.039864
0.021949	0.008435	0.009816	-0.015842	-0.005141	0.041028
0.020064	0.026853	0.017791	-0.022132	-0.002562	0.03792
0.030031	0.028573	0.013355	-0.026641	-0.005758	0.039121
0.031387	0.027433	0.017093	-0.026049	0.000479	0.028678
0.039905	0.018306	0.030417	-0.027279	0.007449	0.022455
0.044806	0.001304	0.029901	-0.033764	0.007045	0.009573
0.054979	-0.005962	0.0489	-0.051306	0.007494	0.013698
0.059046	-0.006004	0.050437	-0.059954	0.006511	0.022325
0.067817	0.003552	0.056997	-0.06489	0.01277	0.010534
0.083987	0.016168	0.063443	-0.055554	0.01772	0.014941
0.083473	0.026174	0.063975	-0.043843	0.026361	0.01635
0.092323	0.025726	0.064051	-0.028929	0.02563	0.014769
0.100153	0.002633	0.057137	-0.02783	0.027839	0.000236
0.104857	-0.026805	0.060384	-0.022882	0.031559	-0.004949
0.104689	-0.039296	0.064024	-0.026364	0.039426	-0.030738
0.108334	-0.03278	0.069493	-0.040701	0.03554	-0.047291
0.109091	-0.018289	0.070419	-0.049231	0.034667	-0.034706
0.115441	-0.009895	0.075872	-0.038602	0.038148	-0.008527
0.116084	0.006275	0.071098	-0.047995	0.030466	0.001372
0.116487	0.007615	0.065916	-0.048929	0.010267	0.016799
0.121425	0.013794	0.055721	-0.051929	0.002475	0.024015
0.128252	0.012129	0.044661	-0.05156	0.021771	0.041172
0.130272	0.003013	0.050036	-0.053921	0.039301	0.030043
0.126599	0.010276	0.052712	-0.059639	0.029586	0.016261
0.11698	0.017745	0.04784	-0.056203	0.010161	0.005993
0.12264	0.034454	0.048684	-0.061296	0.000691	0.000948
0.13	0.034329	0.055483	-0.050234	-0.01251	0.0089
0.133793	0.036168	0.055066	-0.048359	-0.013563	0.001509
0.142849	0.047774	0.043741	-0.036533	-0.009612	0.000287
0.146701	0.065173	0.031486	-0.034451	0.004758	0.037146
0.140582	0.074036	0.032922	-0.037517	0.000136	0.059981
0.141244	0.062179	0.025089	-0.047021	-0.001287	0.041291
0.136698	0.059167	0.019823	-0.056503	-0.012865	0.034071
0.139856	0.065707	0.025001	-0.058463	-0.02952	0.0182
0.135998	0.072501	0.028915	-0.058654	-0.038721	0.013071
0.131718	0.077799	0.035454	-0.067671	-0.054947	0.008858
0.133927	0.092196	0.037445	-0.072521	-0.047694	0.008775
0.134873	0.10611	0.040098	-0.071027	-0.022989	0.008113
0.140708	0.115585	0.042642	-0.068276	0.000122	0.009139
0.130144	0.097989	0.034771	-0.074269	0.002748	0.010826
0.115287	0.078725	0.027204	-0.072958	-0.012742	0.011159
0.106085	0.063682	0.009034	-0.079678	-0.028116	0.01182
0.103923	0.066427	0.007457	-0.083412	-0.017197	0.012946
0.11248	0.07937	0.000788	-0.090601	-0.001845	0.010115
0.125093	0.101205	0.011672	-0.099112	0.009796	0.002895
0.12469	0.128542	0.024272	-0.10068	0.01635	0.009647
0.130312	0.148358	0.018767	-0.110207	0.022918	0.016799
0.123984	0.155753	0.017625	-0.103201	0.019252	0.007542
0.115311	0.151059	0.004989	-0.092576	0.012007	0.002557
0.118763	0.135711	-0.000939	-0.080022	0.011437	0.001825
0.112686	0.113968	0.002323	-0.093166	0.023254	0.001169
0.112539	0.092734	-0.00258	-0.11964	0.035013	0.006072
0.114199	0.085346	-0.010034	-0.134261	0.048831	0.008335
0.112289	0.08034	-0.012735	-0.132647	0.053107	0.008041
0.109249	0.085064	-0.012169	-0.122393	0.055854	0.013782
0.110711	0.086928	-0.005826	-0.103981	0.062797	0.007555
0.105557	0.104728	-0.019309	-0.096156	0.060158	0.01294
0.09896	0.109461	-0.038561	-0.090085	0.052296	0.003032
0.097183	0.09031	-0.045247	-0.085505	0.040863	0.000115
0.083882	0.063212	-0.059117	-0.077756	0.043276	-0.008103
0.065303	0.049954	-0.082589	-0.086741	0.039245	-0.009082
0.041172	0.049003	-0.089919	-0.100502	0.03375	-0.010531
0.041431	0.057544	-0.086563	-0.100769	0.03844	-0.010703
0.041429	0.073494	-0.089139	-0.105272	0.051916	0.002226
0.039382	0.081553	-0.090108	-0.095913	0.075411	0.001999
0.035196	0.07211	-0.097229	-0.084374	0.095243	0.015957
0.031425	0.073582	-0.0955	-0.071387	0.097332	0.016692
0.014418	0.085989	-0.119314	-0.057609	0.087411	0.002053
-0.010087	0.076135	-0.130419	-0.042433	0.0701	0.000253
-0.041739	0.050348	-0.14975	-0.040053	0.070773	-0.002231
-0.047418	0.025685	-0.175182	-0.042202	0.074796	-0.009596
-0.050698	0.007552	-0.174019	-0.051856	0.082077	-0.014663
-0.05721	-0.00289	-0.170831	-0.05742	0.072938	-0.021278
-0.051206	0.014841	-0.178615	-0.064339	0.067161	-0.024532
-0.055214	0.037587	-0.164734	-0.065351	0.057582	-0.02652
-0.054974	0.065326	-0.158938	-0.065311	0.049333	-0.033435
-0.05166	0.083529	-0.168911	-0.048687	0.047017	-0.033408
-0.058902	0.064977	-0.169296	-0.039096	0.050593	-0.04376
-0.067629	0.030251	-0.164345	-0.021828	0.066619	-0.045097
-0.07619	-0.013474	-0.167284	-0.008796	0.074413	-0.051903
-0.0982	-0.043806	-0.165006	-0.010175	0.073794	-0.063471
-0.120129	-0.040499	-0.163678	-0.017651	0.065648	-0.070096
-0.123533	-0.028507	-0.153494	-0.032775	0.061615	-0.070984
-0.120801	-0.017216	-0.147249	-0.043595	0.049359	-0.077554
-0.107614	-0.019381	-0.165611	-0.043158	0.026176	-0.078945
-0.097197	-0.017581	-0.164806	-0.024081	0.014033	-0.084561
-0.100862	-0.029261	-0.146834	-0.004891	0.019487	-0.080332
-0.106049	-0.028975	-0.158706	0.01354	0.016186	-0.086468
-0.10516	-0.02508	-0.168749	0.020658	0.012833	-0.085831
-0.1112	-0.003323	-0.168853	0.013901	0.008603	-0.092167
-0.11167	0.001767	-0.150888	0.005101	0.008768	-0.08916
-0.115384	0.005141	-0.15377	-0.002991	0.00302	-0.094992
-0.120859	-0.019966	-0.151786	-0.000697	-0.000503	-0.093381
-0.11349	-0.031569	-0.149894	0.013277	0.00495	-0.085645
-0.10413	-0.020662	-0.148614	0.011909	-0.000471	-0.08925
-0.102225	0.01305	-0.138352	0.025581	-0.002266	-0.096082
-0.101985	0.005894	-0.145509	0.023576	-0.00475	-0.101039
-0.095535	-0.022516	-0.149279	0.029724	-0.00276	-0.099051
-0.088121	-0.037026	-0.13913	0.025346	-0.007233	-0.097909
-0.087467	-0.04041	-0.131437	0.030711	-0.008696	-0.09346
-0.085041	-0.02708	-0.115685	0.036676	-0.008647	-0.098775
-0.069015	-0.006512	-0.138824	0.022616	-0.004891	-0.101446
-0.058605	0.004393	-0.1177	0.009708	-0.002532	-0.101935
-0.061356	0.008826	-0.102204	-0.009185	-0.009481	-0.11026
-0.064957	-0.001421	-0.08905	-0.013476	-0.008821	-0.109208
-0.064122	-0.016904	-0.082165	-0.008703	-0.004233	-0.108408
-0.047647	-0.009209	-0.058757	0.01513	-0.006665	-0.098088
-0.041434	-0.003484	-0.031813	0.037602	-0.008229	-0.103951
-0.03584	0.002011	-0.016315	0.047862	-0.005178	-0.099986
-0.030942	0.00661	-0.000521	0.049721	-0.005595	-0.089822
-0.019262	0.012194	-0.004032	0.042894	-0.014687	-0.088529
-0.027376	0.013893	0.00398	0.02686	-0.025958	-0.102592
-0.02946	0.013778	-0.006635	0.01744	-0.04	-0.09565
-0.030725	0.012756	-0.02137	0.024808	-0.037227	-0.096085
-0.035552	0.019197	-0.026136	0.038585	-0.018246	-0.09857
-0.034583	0.024182	-0.025143	0.060175	-0.006363	-0.099839
-0.037324	0.027741	-0.021304	0.067198	0.004908	-0.105302
-0.039184	0.041395	-0.016134	0.061726	-0.001862	-0.110286
-0.034692	0.045403	-0.010149	0.056041	-0.015778	-0.110172
-0.036117	0.040556	-0.015691	0.05173	-0.022407	-0.107201
-0.018335	0.047447	-0.036534	0.041577	-0.0232	-0.104053
-0.011624	0.064107	-0.044202	0.038687	-0.014521	-0.101384
-0.013543	0.066472	-0.032522	0.040728	-0.009406	-0.0941
-0.012797	0.053179	-0.032176	0.045657	-0.003486	-0.087904
-0.007569	0.048387	-0.031854	0.051439	-0.004832	-0.087256
-0.006056	0.044376	-0.031013	0.058393	0.006336	-0.07844
-0.004692	0.047756	-0.015314	0.059765	0.005848	-0.078788
-0.001089	0.058892	-0.00633	0.042301	0.013374	-0.082024
0.009542	0.060256	0.004315	0.030466	0.019475	-0.077688
0.016513	0.060126	0.018015	0.028956	0.022685	-0.079381
0.016404	0.060587	0.012922	0.025147	0.023809	-0.077859
0.014537	0.040771	0.014693	0.033959	0.011846	-0.086581
0.008668	0.034143	0.009755	0.040357	-0.003729	-0.085686
-0.001693	0.021138	0.009146	0.042981	-0.011999	-0.079727
-0.008598	0.024609	-0.013335	0.042136	-0.00795	-0.079614
0.004406	0.035801	-0.036506	0.047682	0.000455	-0.072838
0.00477	0.037318	-0.051227	0.044977	6.6e-05	-0.08417
-0.001551	0.034004	-0.05804	0.035121	-0.010337	-0.07345
-0.004269	0.02409	-0.063965	0.011104	-0.02225	-0.077417
0.003306	0.018313	-0.068365	0.009608	-0.026165	-0.080121
0.005795	0.019226	-0.066452	3.3e-05	-0.021334	-0.080169
0.009051	0.025129	-0.069062	-0.006831	-0.02304	-0.072073
0.01421	0.018538	-0.07453	-0.00534	-0.02919	-0.076609
0.01771	0.011405	-0.065654	0.001728	-0.030187	-0.072103
0.024681	-0.002357	-0.065667	0.010165	-0.039129	-0.065136
0.02676	0.005264	-0.055294	0.012987	-0.051667	-0.067504
0.02523	0.020332	-0.041586	0.00672	-0.06042	-0.058386
0.023057	0.040475	-0.034602	0.001319	-0.058973	-0.055992
0.030203	0.050802	-0.033187	0.005061	-0.053842	-0.041936
0.034277	0.05248	-0.020654	0.01264	-0.037768	-0.037465
0.03998	0.057418	-0.01879	0.016638	-0.03834	-0.037434
0.038197	0.048517	-0.016658	0.015986	-0.032229	-0.028789
0.043731	0.04158	-0.012977	0.005394	-0.033389	-0.03035
0.048441	0.031005	-0.005625	-0.000287	-0.037393	-0.025879
0.058913	0.010797	-0.002405	-0.002251	-0.035512	-0.026281
0.063611	-0.012221	-0.004269	-0.003534	-0.040738	-0.028623
0.058318	-0.024022	-0.004235	0.001549	-0.045744	-0.028561
0.046584	-0.028986	-0.00377	-0.008904	-0.044711	-0.023124
0.029042	-0.034421	-0.00938	-0.005468	-0.047204	-0.023187
0.021163	-0.02295	-0.005221	-0.004931	-0.038021	-0.024912
0.014756	-0.006242	-0.00433	-0.000988	-0.032377	-0.019406
0.015041	0.013195	-0.018801	0.003048	-0.041207	-0.019691
0.018655	0.020417	-0.018662	0.003572	-0.036923	-0.025954
0.016189	0.011057	-0.022084	-0.002029	-0.027435	-0.022281
0.015374	0.005301	-0.034997	0.008573	-0.023041	-0.026948
0.01157	0.002002	-0.030574	0.004698	-0.017128	-0.03641
0.013201	0.012513	-0.027722	0.003574	-0.011154	-0.040765
0.012638	0.01435	-0.029826	-0.003512	-0.013814	-0.041603
0.011607	0.027123	-0.030529	0.000265	-0.01059	-0.04208
0.007675	0.036346	-0.027486	0.002936	-0.021011	-0.030966
-0.004318	0.030359	-0.024782	-0.012191	-0.027752	-0.037583
-0.001452	0.021005	-0.034711	-0.013316	-0.032109	-0.026342
0.005244	0.014465	-0.04893	-0.015017	-0.01827	-0.021922
-0.00095	0.021459	-0.054744	-0.005608	-0.002277	-0.02531
-0.00799	0.023534	-0.056282	0.006049	0.014431	-0.031466
-0.017262	0.018412	-0.056996	0.018568	0.009331	-0.043916
-0.014609	0.020347	-0.049468	0.026209	0.010711	-0.064325
-0.016957	0.023105	-0.038985	0.033446	0.012173	-0.07012
-0.021965	0.030156	-0.03865	0.040738	0.001319	-0.080034
-0.029135	0.033582	-0.030111	0.037642	-0.005054	-0.08494
-0.030298	0.033917	-0.024198	0.034467	-0.012056	-0.089712
-0.022397	0.033893	-0.045063	0.022285	-0.014629	-0.085142
-0.01244	0.030399	-0.060997	0.017948	-0.004055	-0.075999
-0.004083	0.033989	-0.057085	0.019339	0.007271	-0.064415
-0.000611	0.057486	-0.05815	0.021244	0.024364	-0.074373
-0.010228	0.089355	-0.044914	0.039748	0.039296	-0.080664
-0.015795	0.098411	-0.015749	0.054568	0.042625	-0.087938
-0.016871	0.077364	-0.021062	0.061648	0.031588	-0.082528
-0.015177	0.0427	-0.011083	0.048553	-0.002608	-0.091488
-0.00703	0.024758	-0.02999	0.030085	-0.023593	-0.095015
0.001181	0.02091	-0.0296	0.01727	-0.023412	-0.095541
-0.003556	0.028455	-0.033389	0.011636	-0.014497	-0.093847
0.000547	0.043465	-0.041958	0.016172	0.011115	-0.093247
-0.001501	0.056287	-0.033629	0.0119	0.01563	-0.092515
-0.003545	0.074426	-0.020489	0.011807	0.015089	-0.088477
-0.009323	0.083832	-0.00649	0.003711	0.013095	-0.08865
-0.001825	0.086796	-0.00364	-0.01746	0.001731	-0.065557
0.014244	0.074727	0.004846	-0.031478	-0.006907	-0.068728
0.014168	0.050863	0.010732	-0.031381	-0.009623	-0.061136
0.017918	0.028704	0.004476	-0.0119	0.002407	-0.051656
0.016626	0.012534	-0.003506	0.003038	0.017549	-0.044448
0.016079	0.014344	-0.001302	0.014316	0.032792	-0.044427
0.015587	0.034782	0.008233	0.017982	0.046726	-0.040683
0.015826	0.056793	0.009519	0.016391	0.016352	-0.039441
0.026067	0.071406	0.015241	-0.007053	-0.011077	-0.04771
0.036003	0.069931	0.029959	-0.013456	-0.021668	-0.048203
0.047133	0.046899	0.037173	-0.018615	-0.01107	-0.04608
0.04815	0.025945	0.042274	-0.020271	0.017102	-0.047577
0.053483	-0.006221	0.029359	-0.031814	0.038134	-0.041275
0.059704	-0.01619	0.027512	-0.032868	0.051864	-0.055563
0.068116	0.002246	0.045049	-0.019629	0.063582	-0.043033
0.065053	0.035764	0.042936	-0.022519	0.042506	-0.035489
0.073252	0.065767	0.061789	-0.036553	0.015358	-0.054669
0.07385	0.078851	0.073599	-0.042906	-0.002249	-0.038181
0.085842	0.064203	0.073833	-0.059307	-0.007562	-0.028861
0.08678	0.042729	0.084628	-0.070309	-0.007196	-0.034769
0.091582	0.024021	0.066662	-0.071524	0.006307	-0.032519
0.100839	0.027115	0.076155	-0.057792	0.031493	-0.024895
0.105088	0.033834	0.070942	-0.049499	0.0574	-0.008788
0.103339	0.033497	0.074438	-0.051612	0.063432	-0.013303
0.105902	0.025147	0.072156	-0.045377	0.049761	-0.008735
0.093037	0.012965	0.082048	-0.053464	0.036651	-0.018266
0.093994	0.02598	0.085317	-0.058667	0.030206	-0.006756
0.094857	0.01842	0.061166	-0.064963	0.022402	0.012506
0.103387	0.011273	0.076123	-0.088902	0.00798	0.002222
0.099775	0.012927	0.073396	-0.095829	0.013256	-0.001126
0.093635	0.023753	0.052518	-0.093988	0.023058	0.011627
0.076659	0.011076	0.066676	-0.088227	0.043784	0.033857
0.077447	-0.011775	0.045596	-0.086614	0.057874	0.039994
0.079184	-0.02288	0.028703	-0.086176	0.071208	0.058381
0.077291	-0.016598	0.02279	-0.073979	0.071891	0.039358
0.064122	-0.010286	0.032376	-0.077725	0.060186	0.040296
0.054065	0.004711	0.042626	-0.071751	0.03727	5.6e-05
0.049822	0.003751	0.02495	-0.076088	0.02913	0.009592
0.051788	-0.007564	0.019094	-0.080235	0.024613	0.004405
0.056738	-0.006603	0.010129	-0.079495	0.03179	0.004058
0.049593	-0.017567	0.008988	-0.085868	0.030967	-0.004063
0.049516	-0.035838	0.01006	-0.088567	0.040512	0.010046
0.056168	-0.041862	0.007354	-0.085795	0.03901	0.008163
0.054708	-0.043692	0.01006	-0.092822	0.037456	0.018229
0.061567	-0.027903	0.000716	-0.093033	0.018292	0.015357
0.070959	-0.019705	0.00866	-0.094512	0.006949	0.007905
0.073208	-0.010876	-0.008934	-0.090292	-0.000844	0.008353
0.067168	-0.005399	0.004042	-0.087952	-0.002287	-0.000835
0.07141	-0.002099	0.002828	-0.091178	0.014561	0.008338
0.068218	-0.009052	0.029648	-0.090757	0.031415	0.017328
0.06513	-0.01449	0.026417	-0.091819	0.044516	0.029788
0.074837	-0.02155	0.057164	-0.091029	0.048637	0.031356
0.096711	-0.022182	0.040404	-0.081291	0.033754	0.027921
0.113326	-0.029736	0.043567	-0.073687	0.011601	0.024193
0.115833	-0.055061	0.014729	-0.07189	-0.001753	0.021409
0.09911	-0.070471	0.029155	-0.079597	-0.00701	0.021649
0.076969	-0.073376	-0.000282	-0.085181	-0.002673	0.025884
0.065759	-0.064819	-0.005152	-0.098075	0.014906	0.037423
0.064598	-0.048244	0.042251	-0.097552	0.034674	0.039566
0.062603	-0.054804	0.012379	-0.098547	0.046992	0.04824
0.084932	-0.078168	-0.016296	-0.099044	0.049553	0.039617
0.091222	-0.098446	-0.018789	-0.092853	0.037366	0.032641
0.083959	-0.0968	-0.023871	-0.08594	0.018424	0.010988
0.070358	-0.069406	-0.046006	-0.080009	-0.000548	0.007322
0.046356	-0.020039	-0.05078	-0.079926	-0.001299	0.006881
0.006543	0.008074	-0.070691	-0.079199	0.00678	0.009822
-0.010832	0.00769	-0.071012	-0.087345	0.022983	0.018076
-0.037166	-0.020396	-0.032422	-0.097309	0.024537	0.013901
-0.048697	-0.055104	-0.058083	-0.099454	0.020275	0.013522
-0.05444	-0.066852	-0.045865	-0.09988	0.012579	0.023882
-0.048002	-0.048406	-0.030273	-0.098873	0.007721	0.009379
-0.053047	-0.021379	-0.025019	-0.095591	-0.001426	-0.001702
-0.049966	0.006031	-0.005771	-0.07581	0.000425	-0.005301
-0.029215	0.023589	0.006149	-0.076518	0.013802	-0.012266
-0.025494	0.015678	0.009295	-0.085079	0.033512	-0.008955
-0.023939	0.013716	0.03395	-0.095598	0.041377	0.006236
-0.029291	0.007617	0.033169	-0.098054	0.032902	0.016156
-0.013592	0.028386	0.055032	-0.105525	0.022762	0.018092
0.008882	0.039304	0.045361	-0.113961	-0.000484	0.018573
0.035259	0.032577	0.056277	-0.111582	-0.019127	0.016755
0.045848	0.023951	0.053028	-0.096694	-0.028036	0.010356
0.041267	0.005612	0.052396	-0.079359	-0.014279	-0.002942
0.041714	0.007663	0.057993	-0.069385	-0.00121	-0.00573
0.040729	0.034925	0.074398	-0.074074	0.014677	0.000521
0.047532	0.059594	0.079826	-0.085156	0.015039	0.008229
0.061525	0.062595	0.071679	-0.089404	0.026654	0.009797
0.069456	0.043126	0.054693	-0.092028	0.029207	0.013837
0.072503	-0.002824	0.060316	-0.088927	0.009799	0.023973
0.065968	-0.036284	0.043254	-0.084809	-0.002193	0.049894
0.059337	-0.045787	0.051231	-0.079715	-0.006898	0.044988
0.056072	-0.024186	0.048923	-0.076018	-0.004796	0.048309
0.058935	0.032391	0.071772	-0.068563	-0.00327	0.050703
0.069229	0.069297	0.066611	-0.04572	0.006262	0.050434
0.06857	0.068542	0.075318	-0.03252	0.013243	0.036361
0.066625	0.027699	0.062212	-0.016342	0.013335	0.024865
0.065128	-0.019968	0.061878	-0.015992	0.012572	0.034925
0.057493	-0.048181	0.047855	-0.009731	0.010925	0.048129
0.047231	-0.049772	0.047411	0.008772	0.005483	0.052946
0.03718	-0.022101	0.059258	0.027087	0.016569	0.053423
0.03867	0.009148	0.070402	0.039775	0.00733	0.060239
0.033155	0.024676	0.078486	0.054559	0.002398	0.056111
0.033201	0.027476	0.067804	0.042732	0.005605	0.054674
0.035005	0.021102	0.070042	0.032688	0.004143	0.062204
0.035287	0.009248	0.061689	0.039199	0.019655	0.069735
0.041501	0.00892	0.067936	0.058036	0.033604	0.068887
0.044183	0.012165	0.066894	0.083752	0.04584	0.06701
0.045512	0.026921	0.078269	0.084451	0.038988	0.068353
0.046072	0.042363	0.076282	0.0736	0.022575	0.062927
0.049031	0.039959	0.070836	0.055961	0.009035	0.058046
0.044894	0.017142	0.060237	0.049457	0.008718	0.059793
0.034041	-0.00308	0.045336	0.040458	-0.000189	0.060591
0.030999	-0.020212	0.03883	0.040813	-0.006698	0.050402
0.027259	-0.037416	0.020666	0.03816	-0.004206	0.052917
0.021487	-0.043497	0.016127	0.039534	-0.003797	0.051034
0.014657	-0.026366	0.02234	0.039138	-0.001149	0.043175
0.009132	0.001622	0.01504	0.025799	0.005877	0.039317
0.00934	0.036527	0.019341	0.017573	0.017231	0.042172
0.005599	0.056863	0.012349	0.01249	0.021089	0.044643
0.002713	0.057084	0.015102	0.013492	0.0239	0.041061
0.010396	0.040052	0.016594	0.011718	0.012628	0.036291
0.027194	0.008182	0.011508	0.009796	0.000539	0.036731
0.036923	-0.007565	-0.010201	0.005127	-0.00938	0.034179
0.029617	0.004478	-0.021298	-0.00654	-0.01793	0.023504
-0.000215	0.044201	-0.030391	-0.008522	-0.016985	0.025419
-0.021901	0.105227	-0.034405	-0.00502	-0.013808	0.028889
-0.042976	0.137669	-0.018619	0.006314	-0.00482	0.034017
-0.039164	0.137822	-0.01177	0.003465	-0.006931	0.022251
-0.029524	0.108398	-0.011276	0.008144	-0.013349	0.025231
-0.018253	0.061586	-0.012487	-1e-05	-0.021207	0.020566
-0.007405	0.026281	-0.021764	-0.003852	-0.028317	0.020359
0.008702	0.035649	-0.025047	-0.00179	-0.027414	0.014426
0.022495	0.068779	-0.0576	-0.008237	-0.029282	0.027105
0.015152	0.037068	-0.092048	-0.013374	-0.023812	0.024378
-0.005709	-0.033579	-0.090099	-0.017669	-0.030553	0.025173
-0.030143	-0.063563	-0.10002	-0.019518	-0.023427	0.020809
-0.047163	-0.075486	-0.100449	-0.017566	-0.017046	0.013637
-0.062393	-0.103461	-0.079345	-0.017355	-0.018563	0.019462
-0.079674	-0.103886	-0.054838	-0.007908	-0.013549	0.011636
-0.093415	-0.045464	-0.03786	-0.008421	-0.008656	0.002213
-0.092586	0.018088	-0.029865	-0.014111	-0.01249	0.005796
-0.073057	0.044078	-0.004994	-0.020108	-0.025145	0.004364
-0.066522	0.004279	0.000757	-0.031655	-0.028399	-0.004493
-0.052763	-0.064831	0.004761	-0.030978	-0.043997	-0.010099
-0.027691	-0.129348	0.007399	-0.035247	-0.040493	-0.001498
-0.018854	-0.176156	0.020938	-0.032925	-0.038377	-8.6e-05
-0.015627	-0.152749	0.028427	-0.019725	-0.028991	-0.002056
-0.014895	-0.06748	0.027831	-0.009388	-0.034869	-0.005522
-0.010772	0.016184	0.024256	-0.009907	-0.031918	-0.006508
-0.005696	0.041118	0.018579	-0.011638	-0.039752	-0.01057
-0.007885	0.00012	0.015245	-0.01565	-0.042302	-0.010553
0.002936	-0.064239	0.005096	-0.019809	-0.033792	-0.005641
0.016103	-0.111744	-0.008642	-0.010016	-0.028115	-0.008473
0.024153	-0.126222	-0.011491	-1.2e-05	-0.015856	0.001064
0.020938	-0.117714	-0.006426	0.005098	-0.015982	-0.00331
0.016475	-0.096082	0.014189	0.011395	-0.010202	-0.001196
0.023976	-0.073303	0.017493	0.01567	-0.013888	-0.007115
0.040695	-0.06091	0.027546	0.024004	-0.014637	-0.00348
0.044863	-0.057082	0.028068	0.02735	-0.008141	-0.007256
0.051244	-0.043041	0.035691	0.033287	-0.003751	-0.002278
0.062681	-0.034375	0.025193	0.031722	-0.001527	0.00689
0.056904	-0.042583	0.026206	0.024519	0.000634	0.008685
0.060079	-0.041475	0.019854	0.03259	-0.000191	0.008057
0.05175	-0.02773	0.01245	0.032777	-0.003311	0.001528
0.057026	-0.018397	0.013033	0.035608	-0.004957	0.005255
0.052559	-0.010943	0.01331	0.036209	-0.002983	0.011847
0.054221	-0.012155	0.01268	0.043559	0.004726	0.011386
0.055589	-0.011761	0.013902	0.048036	0.003581	0.011746
0.051725	-0.004087	0.005303	0.059674	-0.017316	0.017594
0.062083	0.009237	0.005162	0.058803	-0.022891	0.028852
0.065342	0.013138	-0.001065	0.061188	-0.036392	0.025537
0.062508	0.028153	0.005323	0.056873	-0.04086	0.028958
0.068685	0.037048	0.007199	0.057632	-0.038541	0.032931
0.068785	0.052503	0.007206	0.053256	-0.028046	0.038724
0.071383	0.069434	0.017041	0.057015	-0.015281	0.044587
0.077323	0.078766	0.009283	0.041492	-0.002485	0.0484
0.078457	0.080827	0.004944	0.025886	0.002916	0.045723
0.073951	0.069152	0.006241	0.016603	0.004576	0.041068
0.078895	0.063739	-0.000712	0.0063	0.00322	0.036435
0.080745	0.068848	0.009955	0.003315	-0.001156	0.041554
0.073698	0.071212	0.015185	0.006224	0.003043	0.050578
0.077795	0.086389	0.017295	-0.009567	-0.001536	0.062789
0.077904	0.084058	0.011341	-0.027696	-0.001842	0.074175
0.081988	0.071505	0.017632	-0.037648	0.000682	0.0762
0.080321	0.066186	0.017774	-0.030132	0.003231	0.073364
0.084439	0.061399	0.013341	-0.033865	0.014605	0.078667
0.088772	0.069019	0.011473	-0.038772	0.022928	0.070763
0.089343	0.073199	0.018079	-0.042835	0.019919	0.050095
0.091848	0.093976	0.016447	-0.047407	0.00843	0.021185
0.086385	0.107451	0.012709	-0.058495	-0.012607	0.008311
0.080927	0.114226	0.017183	-0.069541	-0.036234	0.014743
0.081381	0.113971	0.020601	-0.070554	-0.039046	0.024403
0.09288	0.100768	0.021037	-0.077461	-0.026948	0.039157
0.086606	0.093484	0.020196	-0.08352	0.009392	0.058505
0.082964	0.091842	0.018187	-0.097343	0.043674	0.069135
0.079068	0.100395	0.014783	-0.096697	0.064037	0.060175
0.065229	0.100355	-1.8e-05	-0.093349	0.074046	0.0541
0.064747	0.098777	-0.002814	-0.100331	0.056166	0.039115
0.067425	0.091992	-0.010348	-0.106483	0.036606	0.019172
0.062577	0.100772	-0.006233	-0.113451	0.019956	0.022486
0.070567	0.119498	-0.001128	-0.122722	0.024945	0.0229
0.073993	0.146801	-0.007343	-0.124832	0.027538	0.022232
0.077432	0.179667	-0.010985	-0.130095	0.035224	0.030084
0.069982	0.187925	-0.020413	-0.125938	0.031392	0.037921
0.069316	0.190579	-0.02749	-0.127668	0.030644	0.046682
0.0659	0.153061	-0.039064	-0.145317	0.034252	0.026346
0.050262	0.077223	-0.045827	-0.156177	0.033677	-0.006594
0.033245	0.026741	-0.070765	-0.151702	0.040926	0.004599
0.026773	0.00444	-0.07463	-0.127469	0.060484	0.003123
0.031654	0.015341	-0.072988	-0.115415	0.096837	-0.00744
0.018113	0.022555	-0.074202	-0.113661	0.109736	-0.014136
0.011145	0.035005	-0.075084	-0.123955	0.097671	-0.010248
0.006249	0.046772	-0.074003	-0.136224	0.059191	-0.026798
0.012312	0.061249	-0.073702	-0.151841	0.018209	-0.041371
0.019291	0.047967	-0.071654	-0.150227	-0.024041	-0.062183
0.020557	0.041198	-0.072602	-0.131969	-0.045324	-0.064361
0.015858	0.022819	-0.082968	-0.109812	-0.044941	-0.059181
-0.006598	-0.005884	-0.082654	-0.091481	-0.020154	-0.050387
-0.024419	-0.015523	-0.076247	-0.084641	0.001156	-0.04659
-0.022987	-0.015825	-0.086186	-0.08566	0.016466	-0.045782
-0.025384	-0.016107	-0.079385	-0.085241	0.014773	-0.043143
-0.018367	-0.014812	-0.065651	-0.089904	-0.010438	-0.041024
-0.019823	-0.000238	-0.058124	-0.098173	-0.021068	-0.040643
-0.013295	0.005418	-0.059204	-0.102764	-0.027813	-0.042804
-0.014071	0.011267	-0.055341	-0.087934	-0.015932	-0.039356
-0.016213	0.013198	-0.067296	-0.065752	-0.00148	-0.043597
-0.026416	0.01016	-0.071065	-0.035275	0.015514	-0.035738
-0.039468	-0.003069	-0.081735	-0.022577	0.033369	-0.016212
-0.044279	-0.01636	-0.097307	-0.017943	0.048717	-0.01425
-0.040454	-0.040296	-0.095977	-0.019224	0.044218	-0.002108
-0.035457	-0.050256	-0.100639	-0.017587	0.026194	-0.014981
-0.029379	-0.044008	-0.100467	-0.013883	0.022507	-0.019709
-0.034726	-0.024244	-0.091174	-0.012187	0.013693	-0.024716
-0.047306	-0.005079	-0.081874	-0.011202	0.014374	-0.025715
-0.061293	0.00456	-0.073465	-0.002719	0.018768	-0.032721
-0.06273	0.006652	-0.064267	0.00198	0.014608	-0.030822
-0.056104	-0.014894	-0.078895	0.00324	0.014137	-0.031621
-0.054331	-0.03258	-0.088168	0.001838	0.014403	-0.039356
-0.063952	-0.040472	-0.093118	0.011338	0.019003	-0.037046
-0.070444	-0.044583	-0.09356	0.01311	0.031529	-0.033258
-0.070156	-0.047284	-0.101135	0.019619	0.051013	-0.034525
-0.062485	-0.04328	-0.092021	0.026358	0.064985	-0.038463
-0.058249	-0.032618	-0.08513	0.033342	0.058889	-0.043616
-0.054247	-0.002455	-0.087667	0.041011	0.050334	-0.042152
-0.06465	-0.009105	-0.087462	0.046785	0.043682	-0.049424
-0.071525	-0.028134	-0.080207	0.043098	0.037631	-0.05561
-0.067888	-0.037983	-0.079277	0.026651	0.033057	-0.044306
-0.070692	-0.043289	-0.076199	0.014415	0.020301	-0.052039
-0.067387	-0.034103	-0.071048	0.015094	0.019912	-0.052559
-0.068225	-0.012395	-0.063925	0.023767	0.043533	-0.053348
-0.068083	0.017871	-0.063186	0.040309	0.062707	-0.049762
-0.074645	0.030593	-0.069075	0.040314	0.079418	-0.055204
-0.068094	0.036323	-0.074214	0.041679	0.069688	-0.060989
-0.067779	0.016738	-0.068549	0.038494	0.061164	-0.062317
-0.066415	-0.000137	-0.075445	0.022858	0.052432	-0.06242
-0.067644	-0.000154	-0.070601	0.017752	0.044871	-0.076032
-0.064586	-0.005249	-0.059064	0.012723	0.042396	-0.068655
-0.062706	-0.003969	-0.059648	0.020009	0.052204	-0.062592
-0.05564	-0.002174	-0.062099	0.03023	0.062718	-0.063862
-0.051452	0.002536	-0.063078	0.039418	0.063025	-0.059351
-0.061297	0.006871	-0.04674	0.0466	0.070564	-0.038196
-0.073082	0.017515	-0.043241	0.026639	0.062966	-0.059695
-0.070267	0.023456	-0.03775	0.019875	0.06396	-0.058312
-0.063865	0.022755	-0.026745	0.016788	0.058299	-0.064061
-0.046412	0.020924	-0.021045	0.021375	0.049777	-0.066661
-0.045087	0.011892	-0.018726	0.019639	0.04208	-0.059269
-0.040516	0.011302	-0.032978	0.028768	0.036591	-0.057532
-0.042764	0.009651	-0.022044	0.02679	0.031129	-0.056777
-0.039886	0.011589	-0.006815	0.027368	0.029387	-0.051592
-0.0369	0.013314	-0.003032	0.018465	0.04209	-0.051606
-0.032419	0.017898	0.011173	0.01339	0.033477	-0.061466
-0.028358	0.035394	0.021154	0.005509	0.030705	-0.053162
-0.026341	0.04808	0.00464	0.002656	0.022919	-0.052585
-0.032634	0.049933	0.00297	-0.011432	0.012408	-0.050136
-0.033405	0.034136	0.009812	-0.011428	0.007756	-0.066925
-0.026184	0.009964	0.012815	-0.024756	-0.003087	-0.059283
-0.016502	-0.002601	0.012774	-0.024621	-0.002728	-0.051229
-0.005295	-0.006959	0.022567	-0.029072	-0.005028	-0.046817
-0.008439	0.007963	0.040579	-0.030945	-0.004997	-0.038526
-0.021112	0.017858	0.057991	-0.034111	-0.007773	-0.046004
-0.017705	0.014662	0.0543	-0.023261	-0.011072	-0.041981
0.002477	0.026426	-0.008794	-0.022107	-0.008378	-0.037957
-0.00499	0.039453	-0.013347	-0.007233	-0.016434	-0.03779
-0.032626	0.03836	-0.008781	-0.009444	-0.018445	-0.033449
-0.035551	0.023986	-0.016507	-0.031917	-0.030543	-0.040864
-0.014383	0.010568	-0.021802	-0.043118	-0.035966	-0.038549
0.002309	0.000568	-0.010153	-0.04232	-0.047803	-0.02585
0.011826	0.009098	0.009494	-0.021685	-0.04938	-0.02515
0.007651	0.032905	0.019999	-0.003291	-0.049427	-0.026003
0.001135	0.053612	0.035769	0.001667	-0.054415	-0.018516
0.004405	0.042444	0.038495	-0.001365	-0.045522	-0.015574
0.001682	0.021061	0.041428	-0.01081	-0.040978	-0.020802
-6.8e-05	0.005303	0.022405	-0.000394	-0.030447	-0.010428
0.007905	0.004117	-0.00441	0.00604	-0.02792	-0.018269
0.017818	0.009976	-0.007259	0.007912	-0.02018	-0.023231
0.026952	0.021719	-0.011998	0.011127	-0.026166	-0.027994
0.035812	0.026933	-0.005829	0.010133	-0.020476	-0.042738
0.035772	0.022712	-0.003927	0.005202	-0.016832	-0.050122
0.026963	0.018623	-0.000635	0.010244	-0.007241	-0.053459
0.01014	0.022739	0.009626	0.010741	0.001	-0.053212
0.004125	0.023756	0.026528	0.008515	-0.004559	-0.062865
0.011261	0.016206	0.01825	0.00486	-0.013688	-0.076575
0.02487	0.007117	0.013592	0.009529	-0.018986	-0.078935
0.031994	0.005418	0.002775	0.013473	-0.021241	-0.085469
0.033177	0.00704	0.005396	0.022249	-0.016775	-0.085953
0.043111	0.010864	0.012264	0.030833	-0.023764	-0.083292
0.038365	0.006969	0.019145	0.038823	-0.024773	-0.090468
0.032969	0.003836	0.028308	0.042072	-0.034326	-0.086435
0.037138	0.002007	0.033148	0.040286	-0.032934	-0.085919
0.039922	-0.002002	0.024846	0.033444	-0.031491	-0.08836
0.046233	-0.005119	0.028731	0.042329	-0.032095	-0.082467
0.046799	-0.003726	0.025083	0.043275	-0.026084	-0.081068
0.054452	-0.009661	0.022859	0.041474	-0.027335	-0.086854
0.057117	-0.005879	0.026917	0.038382	-0.022096	-0.098353
0.052706	0.0104	0.030772	0.038202	-0.016872	-0.109625
0.061345	0.01837	0.034244	0.041256	-0.001401	-0.105478
0.064749	0.013183	0.036627	0.039938	0.007565	-0.101914
0.074743	0.00181	0.02992	0.03955	0.001364	-0.108673
0.076579	-0.016652	0.024648	0.039892	-0.006195	-0.116999
0.074194	-0.023224	0.017489	0.032567	-0.006321	-0.112089
0.078705	-0.001948	0.016211	0.030316	-0.013624	-0.108135
0.071925	0.003734	0.018421	0.028025	-0.015694	-0.10526
0.068643	-0.000142	0.01564	0.020685	-0.024917	-0.106477
0.068177	-0.007028	0.012883	0.01459	-0.028223	-0.100937
0.058927	-0.013756	0.005562	0.015013	-0.033668	-0.09507
0.053482	-0.002988	0.009608	0.027066	-0.036896	-0.089516
0.052242	-0.005458	0.00436	0.024056	-0.039401	-0.092907
0.048717	-0.009176	0.011436	0.020852	-0.041844	-0.089569
0.03968	0.000279	0.005891	0.013202	-0.047149	-0.084068
0.018948	0.013127	0.008	0.006824	-0.043687	-0.072029
0.00597	0.009929	0.011759	0.012478	-0.042416	-0.076336
0.001057	0.001463	0.003282	0.016963	-0.042469	-0.065357
-0.001685	-0.004617	0.00264	0.018151	-0.039607	-0.068951
0.004633	0.007504	-0.000525	0.017882	-0.027995	-0.073238
0.002093	0.014817	-0.003106	0.021848	-0.015599	-0.073694
0.003786	0.012627	-0.005541	0.035939	-0.006757	-0.073726
0.009889	0.005252	-0.012872	0.03526	-0.01809	-0.069412
0.017631	0.002228	-0.025285	0.014844	-0.03791	-0.067337
0.01952	0.000102	-0.035642	0.003261	-0.04816	-0.072877
0.013233	-0.008268	-0.044715	0.004192	-0.050941	-0.059282
0.008554	-0.006351	-0.053314	0.003892	-0.047868	-0.056626
-0.001804	0.005227	-0.064398	-0.000807	-0.039578	-0.056251
-0.004357	0.007282	-0.073242	0.003134	-0.02974	-0.054979
-0.005982	0.021789	-0.076417	0.000499	-0.019129	-0.05451
-0.010851	0.018194	-0.072058	0.001452	-0.020061	-0.055228
-0.017449	0.030447	-0.074117	-0.008807	-0.030289	-0.048644
-0.020407	0.033773	-0.076455	-0.027674	-0.052072	-0.0507
-0.021892	0.023856	-0.090013	-0.037348	-0.048289	-0.045391
-0.021346	0.007507	-0.08962	-0.035284	-0.032131	-0.045134
-0.02901	0.009437	-0.107635	-0.020308	-0.012981	-0.039694
-0.036676	0.016788	-0.105422	0.003658	0.010568	-0.047109
-0.040669	0.019028	-0.102264	0.03045	0.025462	-0.054302
-0.043076	0.016921	-0.092873	0.048337	0.028771	-0.057702
-0.045854	0.016896	-0.086655	0.050665	0.010401	-0.055285
-0.047736	0.009535	-0.082853	0.021858	-0.029711	-0.064109
-0.057376	0.000846	-0.087575	-0.017001	-0.054321	-0.055761
-0.061725	-0.002725	-0.089344	-0.035463	-0.050538	-0.049544
