LArm_acc_X	LArm_acc_Y	LArm_acc_Z	RArm_acc_X	RArm_acc_Y	RArm_acc_Z
-0.001953	0.007659	0.008778	-0.000948	0.006516	0.007949
0.000926	0.003904	0.005952	-0.004596	0.005778	0.007884
0.001625	-0.000559	0.00167	-0.001609	0.002817	0.005111
-0.00417	0.001675	0.001612	-0.003101	-9.6e-05	0.007255
0.000141	-0.001367	0.003885	-0.003674	-0.001582	0.00286
-0.000568	-0.000646	0.00315	-0.005658	-0.004503	-0.002348
0.001774	0.008028	0.002349	-0.002538	-0.000136	-0.00819
-0.00126	6.2e-05	-0.000498	0.003902	-0.002273	-0.002993
0.000954	0.003709	0.003102	0.005526	0.003508	-0.008785
0.001841	0.009374	-0.004926	0.005527	-0.003761	-0.008767
0.006002	0.002026	0.003915	0.000213	-0.001544	-0.000906
0.002366	0.004188	0.003867	0.000127	0.001393	0.002687
0.001627	0.003392	0.000236	0.002351	0.00432	0.002667
-0.001424	-0.002363	0.002444	-0.000529	0.002893	0.002533
-0.001337	0.001243	-0.000499	-0.001226	0.002931	0.003145
0.000865	0.001205	-0.000471	-0.003229	0.005838	-0.001363
-0.003474	0.003481	0.000926	-0.00681	0.008763	-0.000835
6.8e-05	-0.000185	0.007546	-0.003761	0.005846	-0.004437
-0.003497	0.003469	0.00311	0.001949	0.009516	0.001447
0.000937	0.006971	-0.001269	-0.003696	0.009487	-0.003105
-0.002065	0.005548	-0.001312	-0.008039	0.009453	-0.001071
-0.001585	-0.001693	0.005266	-0.004984	0.007213	-0.003202
0.005006	0.004799	0.008103	0.005257	0.006458	-0.003679
-9.7e-05	0.006332	0.002908	0.004693	0.005658	-0.008036
-0.006038	0.003561	0.000645	0.002478	0.003432	-0.005159
-0.001061	0.000618	0.00358	-0.000421	-0.000971	-0.004472
-0.000224	0.007087	-0.000861	0.004553	-0.000276	0.002202
0.001218	0.008491	0.002044	0.000262	0.002601	0.000625
0.001763	-0.001026	0.002886	0.002457	-0.00176	0.000677
-0.002504	0.005579	0.007903	-0.001955	0.005522	0.003419
-0.007639	0.00338	0.005724	-0.001145	0.00259	0.001968
-0.005488	0.000372	0.002142	-0.002696	-0.000293	0.006976
-0.005464	0.003379	0.005723	0.000412	0.001137	0.001189
0.001834	0.004835	0.00279	-0.004664	-0.001766	0.002464
0.009803	0.007061	0.001988	-0.003771	-0.001796	-0.001914
0.005453	0.010895	-0.00547	0.000592	-0.00617	-0.000356
0.005341	0.011027	0.002467	0.002835	-0.002541	-0.001078
0.004564	0.006524	-0.002551	0.002883	-0.002493	-0.001189
0.003218	0.009983	-0.003973	0.005072	-0.001684	0.000175
-0.002051	0.00264	0.001209	0.002894	0.004172	0.002179
0.001525	-0.001948	0.002071	-0.000807	0.003466	0.007095
-0.005049	-0.000338	0.007818	-0.0014	0.004165	0.004838
-0.008738	-0.003164	0.005621	-0.000563	0.006309	0.004777
-0.004294	0.000477	0.005599	-0.005445	0.000425	0.000267
-0.003488	0.006478	0.004736	-0.001163	0.001179	0.007523
-0.000557	0.006512	0.004744	-0.00512	0.000403	-0.0036
0.000216	0.008763	0.004706	-0.002121	0.001133	-0.00221
0.003189	0.007942	-0.001058	-0.00196	0.001118	-0.003783
-0.004058	0.008794	0.003285	0.000267	0.003299	-0.001653
0.002567	0.007125	0.002714	-0.000364	0.001112	-0.001762
0.000439	0.006329	0.002051	-0.001855	0.004039	0.003171
0.002571	-0.001786	-0.000692	-0.000765	-0.000389	-0.007036
0.001903	-0.001069	-0.000668	0.00208	0.006919	-0.001286
0.006282	-0.001841	0.002307	0.001519	0.004712	-0.003573
0.005609	0.001103	0.002266	0.00083	0.006177	-0.002232
0.00633	0.001839	0.003708	0.00091	0.00543	-0.002293
-0.000123	0.008477	0.00578	-0.003416	0.006878	-0.000314
0.006338	0.003241	0.00882	-0.000425	0.005385	-0.000275
0.002824	0.006099	0.002991	0.000464	0.008989	-0.00395
-0.001644	0.000367	0.006678	-0.001786	0.003871	0.001082
0.002843	0.004656	0.006692	-0.003067	0.005257	-0.002609
-0.000828	0.002549	0.005226	-0.000205	0.003057	0.00109
-0.003731	0.001895	0.003755	-0.002218	-0.000617	-0.003344
-2.9e-05	0.001844	0.000893	0.0043	0.006664	-0.000345
-0.001448	0.002657	0.002335	-0.001455	0.002316	-0.000568
-0.002838	0.002724	0.000892	0.002967	0.010303	-0.001238
-0.004073	0.005745	0.004596	-0.004934	0.007387	-0.002948
-0.000346	0.002716	0.002566	-0.00218	0.00451	0.004354
-0.000278	-0.000283	-0.000224	-0.004195	0.000842	-8.6e-05
-0.000235	-0.000985	0.002741	-0.001951	0.003	-0.000785
0.001309	0.001166	0.002031	0.002492	0.003683	-0.002125
0.005093	0.004733	-0.001585	-0.000549	0.004415	0.003606
-9.3e-05	0.002053	0.004195	-0.002633	-0.004341	0.001382
-0.003631	0.004335	-0.000216	-0.001089	0.005859	-0.00086
-0.002141	0.004302	0.000551	-0.003349	0.005884	0.003392
-0.002098	0.003535	0.000608	0.001789	0.005168	0.00346
-0.000656	0.002025	0.005774	0.000411	6.4e-05	0.001953
0.000158	0.002679	0.004375	0.002743	0.005857	-0.002394
-0.004094	0.005637	0.002899	-0.005415	6.6e-05	0.004648
0.001036	0.002592	0.000843	-0.005257	-0.000698	-0.000438
0.00105	0.002628	0.005232	-0.001568	0.005856	-0.002562
-0.000408	0.001197	0.005253	-0.002423	0.004421	0.002501
-0.002521	0.004171	0.005211	-0.000257	0.008784	0.00398
-0.002438	0.00632	0.002299	-0.000191	0.005822	0.003273
-0.000979	0.00484	0.002345	-0.002267	-4.4e-05	0.000344
-0.003843	0.00704	0.003047	0.000819	-0.00591	-0.006077
-0.000936	0.001816	-0.000455	-0.001354	-0.001515	-0.005485
0.001302	0.000974	-0.002559	0.005293	0.002876	-0.008312
0.002025	-0.001215	-0.001778	0.00664	0.003668	-0.003986
0.003447	-0.003332	0.004087	0.00281	0.005917	0.00313
-0.003747	-0.001023	0.001112	0.00433	0.00445	0.000281
-0.00221	0.001095	-0.001788	0.006441	0.003753	0.001089
0.000733	0.000277	-0.003913	-0.001644	0.00597	0.002343
0.000627	-0.003285	0.002662	0.000508	0.007456	0.00168
0.003482	-0.006249	0.001249	-0.003133	0.011129	0.000117
0.000626	-0.001815	0.00043	-0.00744	0.006814	-0.002935
-0.001498	0.00114	-0.00181	-0.006154	0.014898	0.002118
-0.000115	0.001189	0.004717	-0.002497	0.009095	6.2e-05
0.000553	0.000505	0.005414	-0.001746	0.011982	-0.002055
-0.000927	-0.000915	-0.00117	-0.001664	0.01265	-0.006328
-0.000128	0.006485	0.001605	0.000412	0.009691	-0.00396
-0.00308	0.006575	0.001546	-0.001769	0.011092	-0.006082
-0.00238	0.006571	0.002262	0.000108	0.007452	0.003535
0.001132	0.000745	0.008172	-0.002778	0.005948	-0.000752
-0.003243	-0.000692	0.003794	-0.002842	0.00445	-0.001335
0.0011	-0.002282	0.006056	-0.002213	0.006593	-0.00117
0.00317	-0.011875	0.004042	0.002041	0.0022	-0.000181
0.001481	-0.023451	0.009981	-0.000299	0.002946	0.002745
0.012901	-0.037368	0.007999	0.001017	-0.000679	0.005057
0.012097	-0.042212	-0.002261	0.000316	5.9e-05	0.00074
0.012079	-0.036492	-0.005505	7.1e-05	-0.002779	0.006599
0.005366	-0.030961	-0.002419	0.002962	0.000154	0.003109
0.007084	-0.010539	-0.022684	-8.7e-05	0.00314	0.003792
0.005886	-0.009391	-0.005783	0.002747	-0.000427	0.001746
0.003621	0.005929	-0.002746	-0.001662	-0.001118	0.000224
-0.000451	0.000581	-0.006716	-8.8e-05	0.00036	-0.0077
0.003258	-0.014416	-0.004693	-0.004592	0.004027	-0.004874
0.001294	-0.016189	0.001475	-0.001791	-0.001021	-0.002591
-0.008412	-0.004679	0.003791	0.002454	0.001939	-0.000297
-0.007205	0.004535	0.001817	0.000914	-0.001685	0.000465
-0.009711	0.012533	0.007063	-0.002763	-0.000228	-0.00101
-0.011442	0.0204	0.00433	-0.003641	-0.000931	0.003359
-0.008842	0.024476	0.003175	-0.002959	0.00272	0.003398
-0.001157	0.02549	0.005063	-0.003778	0.002735	0.005586
-0.000783	0.0207	0.005578	-0.005219	0.003469	0.004106
-0.000234	0.023119	0.01046	-0.005855	-0.003814	-0.000229
0.002706	0.028207	0.003051	-0.005297	0.002775	0.004861
-0.005504	0.024084	0.005117	-0.003758	0.000573	0.001294
0.000217	0.023329	0.010209	0.000614	0.007117	0.000667
0.007469	0.023227	0.009504	-0.000205	-0.000123	0.002858
0.01102	0.023384	0.01233	0.001326	0.001346	-0.002173
0.013242	0.027296	0.012922	-0.000935	0.005006	-0.000765
0.013901	0.021857	0.016548	-0.000172	0.00064	-0.002896
0.02287	0.02044	0.007225	-0.000995	0.007921	0.0007
0.025862	0.014123	0.023465	0.003448	0.004277	-0.002798
0.027586	0.00678	0.020173	-0.000905	0.001346	-0.004303
0.029373	0.003148	0.026334	0.001316	0.002779	-0.006395
0.034987	0.003127	0.024502	-0.006046	0.007155	-0.003677
0.044133	-0.001765	0.027041	-0.000966	0.002771	-0.004205
0.050483	-0.006356	0.020037	-0.003987	0.004944	-0.000612
0.048373	0.002577	0.023018	-0.000485	0.006413	0.00315
0.046283	0.002842	0.026186	-0.001962	0.002045	0.002446
0.05674	-0.001769	0.02536	-0.002133	0.007876	0.007559
0.046844	-0.021004	0.019738	-0.001292	0.00421	0.001831
0.058262	-0.045832	0.017489	-0.001955	0.006353	-0.001763
0.056304	-0.048308	0.016318	-0.001309	0.007818	-0.000965
0.057989	-0.044396	0.010445	0.001588	0.003487	-0.002322
0.044722	-0.043951	0.008483	-0.00067	0.00861	-0.001642
0.035174	-0.033129	0.007016	-5.3e-05	0.009352	0.000602
0.032657	-0.034677	0.0064	0.00133	0.003508	0.001476
0.024837	-0.03597	0.011406	0.00572	0.003484	-0.002667
0.030789	-0.030375	0.014895	-0.000239	0.002781	0.000853
0.053093	-0.026733	0.020548	0.00187	0.002087	0.000948
0.074853	-0.029088	0.019445	-0.00316	-9.5e-05	-0.004203
0.069651	-0.05111	0.017287	-0.002484	0.004273	-0.004147
0.0629	-0.04914	0.006246	-0.004688	0.002073	-0.004151
0.062919	-0.024408	0.023342	-0.003382	-0.002284	0.001015
0.061145	0.004714	0.035689	-0.003303	-0.003026	-0.001886
0.054002	0.023441	0.039583	-0.002675	-0.004465	0.001771
0.050071	0.017789	0.021643	-0.002895	0.003596	0.008289
0.039577	-0.011011	0.020756	-4e-06	0.008681	0.007663
0.045572	-0.034336	0.008707	-0.004474	0.007987	0.010464
0.050211	-0.040096	0.016764	-0.003692	0.007959	0.008331
0.050628	-0.026051	0.019218	-0.005765	0.005016	0.005373
0.031151	-0.016638	0.011814	-0.000499	-0.001571	0.001841
0.017286	-0.015555	-0.005091	-0.000211	-0.003787	-0.005511
0.001149	-0.019047	-0.00814	0.003616	-0.005973	-0.009156
0.004313	-0.024897	-0.011474	0.003784	-0.00452	-0.011465
0.006669	-0.016172	-0.003666	0.007363	-0.003018	-0.007118
0.012694	0.000826	-0.009237	0.011161	-0.006666	-0.012137
0.012011	0.026491	-0.008709	0.004576	-0.002303	-0.010147
0.010956	0.042455	-0.017877	0.002281	-0.010252	-0.004445
0.010168	0.055421	-0.012861	-0.00201	-0.00367	-0.005408
0.011176	0.054251	-0.025529	-0.003321	-0.003596	-0.009236
0.011766	0.050394	-0.021963	-0.004825	0.003081	-0.005147
0.009201	0.041519	-0.021728	-0.006964	0.010477	-0.004713
0.005346	0.045018	-0.024179	-0.004752	0.018606	-0.002746
0.008104	0.054924	-0.027749	-0.00463	0.01869	-0.005816
0.010206	0.07207	-0.028097	-0.00314	0.018744	-0.005175
0.002086	0.088527	-0.024385	-0.007353	0.018745	-0.008286
0.002762	0.097146	-0.026361	-0.007372	0.020928	-0.005437
0.004987	0.103192	-0.024639	-0.006559	0.015794	-0.00615
0.006405	0.089277	-0.029198	-0.00646	0.012131	-0.007631
0.003716	0.076891	-0.025037	-0.005862	0.012856	-0.000382
0.003468	0.064372	-0.021578	-0.005755	0.010606	-0.002534
-0.005186	0.05332	-0.026177	-0.006666	0.00693	0.005504
-0.001775	0.050812	-0.02197	-0.005883	0.001795	0.004116
0.000344	0.038809	-0.025639	-0.009537	0.004704	0.006159
-0.000145	0.029939	-0.020603	-0.009359	0.003193	0.002496
-0.002965	0.035757	-0.016417	-0.007882	0.00244	0.004671
0.00182	0.037136	-0.015612	-0.007993	0.003919	0.011846
-0.000115	0.044581	-0.014624	2e-06	0.009744	0.014864
-0.004636	0.040473	-0.01894	0.001693	0.006066	0.00691
-0.013108	0.030546	-0.025565	0.003096	0.007525	0.009119
-0.011582	0.021012	-0.03512	0.001725	0.003138	0.004072
-0.022778	0.011676	-0.046517	0.006722	-0.000483	0.005005
-0.032048	0.016151	-0.051965	0.005319	-0.000491	0.001377
-0.041961	0.008377	-0.058498	0.013979	-0.002668	0.000964
-0.043364	0.007156	-0.065416	0.012996	0.000276	0.005423
-0.050449	-0.006716	-0.069753	0.009697	0.000349	0.014896
-0.05617	-0.011619	-0.075139	0.015467	0.000368	0.010111
-0.061225	-0.003963	-0.07715	0.010897	-0.005401	0.011598
-0.071596	0.003067	-0.082743	0.009086	-0.004562	0.016769
-0.072849	0.003991	-0.085026	0.015399	-0.002251	0.017021
-0.075931	-0.002577	-0.092793	0.005778	0.00297	0.013237
-0.075877	-0.017234	-0.09305	0.002754	0.00598	0.006062
-0.073814	-0.021833	-0.098549	-0.001162	0.003164	0.006165
-0.072852	-0.019021	-0.096373	-0.005773	0.003955	0.00553
-0.075097	-0.010242	-0.097428	-0.005885	0.015622	-0.000101
-0.080105	-0.008616	-0.095706	-0.006945	0.010592	0.001598
-0.0783	-0.010701	-0.092576	-0.005835	0.017889	0.004077
-0.078969	-0.012112	-0.10042	-0.004088	0.01504	0.008078
-0.075607	-0.004884	-0.098211	-5e-05	0.01286	0.007832
-0.071952	0.002904	-0.097551	-0.002407	0.011321	0.002395
-0.070238	0.012871	-0.09057	-0.007919	0.002551	0.00634
-0.066206	0.011621	-0.098208	-0.007497	0.004647	0.005361
-0.060667	0.005315	-0.092249	-0.009231	-0.001234	0.002877
-0.064325	0.003444	-0.088216	-0.009411	-0.004196	-0.002534
-0.056668	0.010715	-0.085993	-0.010595	-0.000567	0.001474
-0.050821	0.027446	-0.085032	-0.004625	0.001612	0.010047
-0.040928	0.017215	-0.076162	-0.00123	0.002288	0.004779
-0.03877	0.011431	-0.063357	-0.005944	0.005892	0.003644
-0.040065	0.001143	-0.057394	0.00257	-0.002168	-0.002907
-0.035321	-0.007855	-0.048187	-0.004468	6.7e-05	0.001629
-0.031004	-0.011852	-0.046872	-0.000356	0.00587	-0.002254
-0.032277	-0.009843	-0.046381	0.00086	0.004405	-0.006919
-0.029111	-0.011395	-0.043651	0.002728	0.002939	-0.008645
-0.023589	-0.005665	-0.035911	-0.000683	0.008024	-0.004658
-0.014303	-0.003747	-0.036738	0.011213	0.010922	-0.003143
-0.010797	-0.00608	-0.041207	0.001543	0.010115	-0.011579
-0.022393	-0.000761	-0.04598	0.001055	-0.000114	-0.010273
-0.028078	0.010453	-0.039254	0.002663	0.004926	-0.00532
-0.021849	0.02793	-0.039779	0.005275	-0.000279	-0.010466
-0.021477	0.038222	-0.041717	-0.0025	0.002577	-0.00724
-0.017319	0.051287	-0.041392	9.8e-05	-0.001144	-0.010991
-0.014865	0.039603	-0.045076	0.00243	0.000267	-0.003888
-0.010597	0.039538	-0.046603	0.002644	-0.003433	0.001004
-0.009757	0.047577	-0.044622	6.3e-05	0.000102	0.001465
-0.009636	0.05054	-0.044083	0.001058	-0.001449	0.002802
-0.000691	0.054673	-0.047895	0.002678	-0.002967	0.008482
-0.001372	0.053176	-0.044547	0.007382	0.002009	0.006284
0.000263	0.057425	-0.044272	0.002584	-0.00319	0.004628
-0.002343	0.07192	-0.040622	0.003493	0.001854	0.00881
0.00384	0.085357	-0.042728	-0.001009	-0.001158	-0.001684
0.000438	0.092284	-0.047063	0.008152	-0.00554	-0.006081
-0.004544	0.089059	-0.045461	0.006015	0.000366	0.003681
0.000716	0.087703	-0.041617	0.004447	0.003943	-0.007547
0.002404	0.091432	-0.036465	0.006144	-0.001897	-0.005538
0.00619	0.090526	-0.037108	0.006418	-0.000525	-0.007103
0.002622	0.091666	-0.035647	0.007354	-0.004974	-0.006431
0.008572	0.094478	-0.047256	0.008363	-0.004354	-0.007957
0.004589	0.085077	-0.050303	0.006307	-0.002984	-0.003747
0.006308	0.08063	-0.048495	0.004323	0.000587	-0.001061
0.003413	0.072597	-0.04766	-0.000602	0.002724	0.002984
0.006877	0.065057	-0.04625	-0.003865	0.002625	-0.000887
0.006513	0.057474	-0.048723	-0.006594	0.005475	0.003922
0.013253	0.057104	-0.047941	-0.010472	0.015558	-0.003666
0.025651	0.069151	-0.041877	-0.018013	0.025607	-0.00915
0.034002	0.07624	-0.031015	-0.03	0.021905	-0.009013
0.043846	0.09415	-0.020396	-0.042237	0.032048	0.003373
0.046831	0.099069	-0.002423	-0.051154	0.049132	0.005132
0.050509	0.087027	0.001353	-0.049905	0.048393	-0.014405
0.052238	0.077797	0.003082	-0.038961	0.015232	0.012052
0.060258	0.04883	0.005077	-0.038657	-0.004788	-0.001242
0.06115	0.029568	0.007521	-0.040703	0.006145	0.01345
0.058115	0.036818	0.01311	-0.036386	0.023566	0.006483
0.065723	0.066704	0.022771	-0.039206	0.028674	0.019807
0.065782	0.069842	0.025416	-0.050944	0.029409	0.007514
0.069681	0.064796	0.027001	-0.068496	0.034788	0.013939
0.077094	0.033978	0.024096	-0.070363	0.051917	0.025886
0.075437	0.013398	0.016785	-0.063686	0.057734	0.01739
0.06972	0.01568	0.024357	-0.056259	0.042186	0.007848
0.068096	0.039163	0.019873	-0.044817	0.034558	0.007348
0.067228	0.060757	0.016688	-0.041884	0.028266	-0.000568
0.072877	0.074421	0.020884	-0.045003	0.022055	0.005714
0.063011	0.061421	0.026117	-0.059529	0.008643	0.009286
0.063648	0.045779	0.022985	-0.0663	0.015164	0.024272
0.063825	0.041702	0.023424	-0.054465	0.026173	0.025651
0.064167	0.043412	0.017917	-0.040481	0.031289	0.032198
0.065785	0.045358	0.030422	-0.027627	0.026659	0.030226
0.063759	0.039866	0.026981	-0.021906	0.015889	0.02974
0.063103	0.026296	0.020695	-0.007378	0.001936	0.03114
0.061814	0.02406	0.027125	-0.007669	-0.008528	0.052493
0.055776	0.038899	0.024353	-0.012389	-0.023585	0.059134
0.052664	0.053913	0.016277	-0.023209	-0.037195	0.064478
0.057953	0.055879	0.019899	-0.019499	-0.045526	0.060739
0.070588	0.056909	0.025085	-0.02092	-0.036094	0.050818
0.070819	0.052761	0.020849	-0.012559	-0.016212	0.049016
0.08251	0.047564	0.030552	-0.004797	-0.00585	0.031511
0.075243	0.045255	0.029919	0.009022	-0.004323	0.014045
0.075536	0.065145	0.029115	0.006037	-0.004303	0.001234
0.077553	0.067461	0.029151	0.003074	-0.008648	-0.012325
0.070701	0.064882	0.029073	-0.003975	0.003849	-0.006567
0.07527	0.052644	0.033499	-0.011516	0.021344	-0.003853
0.076231	0.047659	0.026775	-0.007523	0.037012	-0.012466
0.084991	0.05147	0.027005	0.000367	0.042902	-0.021608
0.085489	0.063981	0.023272	0.006133	0.037669	-0.027797
0.092869	0.084678	0.026036	0.017532	0.025117	-0.025106
0.089908	0.092499	0.032557	0.014353	0.009645	-0.018527
0.087488	0.083554	0.044474	0.016493	-0.005838	-0.013527
0.078796	0.079004	0.045471	0.014974	-0.002899	0.00092
0.072366	0.080052	0.076191	0.017575	0.013166	0.009095
0.073359	0.09133	0.082199	0.022108	0.025492	0.013975
0.080791	0.108179	0.082285	0.026588	0.035331	0.010533
0.083452	0.109418	0.080054	0.013854	0.038317	0.010157
0.080945	0.105939	0.087199	0.007371	0.024963	0.004071
0.078664	0.100024	0.079955	-0.006949	0.017215	0.000489
0.07955	0.097386	0.082446	0.003729	0.025384	-0.008568
0.072917	0.093466	0.07812	0.013037	0.03124	-0.014255
0.074032	0.082192	0.059842	0.018999	0.031021	-0.026617
0.076821	0.067812	0.049085	0.017613	0.027707	-0.033394
0.085144	0.058505	0.051557	0.019945	0.020542	-0.041528
0.091946	0.054134	0.043992	0.009034	0.002425	-0.045691
0.09245	0.041214	0.040202	0.003035	-0.003966	-0.045625
0.084962	0.010923	0.039545	0.001442	-0.000172	-0.047878
0.075064	-0.014315	0.033092	-0.000364	0.013097	-0.046593
0.073357	-0.050541	0.021734	0.003729	0.02474	-0.053693
0.073639	-0.07047	0.010095	-0.000656	0.026798	-0.048374
0.08495	-0.090247	-0.006034	-0.002329	0.028763	-0.043459
0.085374	-0.09975	-0.016891	-0.004862	0.018997	-0.040485
0.079276	-0.100464	-0.012186	-0.006147	0.008518	-0.038039
0.072877	-0.082708	-0.004886	0.005419	0.00679	-0.034402
0.070365	-0.062949	-0.001903	0.006265	-0.012459	-0.041167
0.067378	-0.075271	0.01457	0.00866	-0.017637	-0.032703
0.058025	-0.106731	0.013155	0.0149	-0.033623	-0.035234
0.061196	-0.143344	0.011104	0.016013	-0.04143	-0.038983
0.072106	-0.160444	-0.000905	0.011652	-0.04168	-0.029562
0.081035	-0.156683	-0.002016	0.008921	-0.039573	-0.027146
0.076287	-0.136524	-0.008218	0.001113	-0.024221	-0.024692
0.064126	-0.122854	-0.019099	-0.003795	-0.00812	-0.020361
0.060912	-0.09571	-0.008389	-0.005053	0.004249	-0.016099
0.061573	-0.07248	-0.009916	-0.008574	0.017988	-0.010503
0.058454	-0.064008	-0.005397	-0.010531	0.016296	-0.012004
0.046411	-0.075263	6e-05	-0.011126	0.018829	-0.014721
0.040642	-0.077389	-0.0032	-0.009578	0.015435	-0.020817
0.039502	-0.067205	-0.008803	-0.009869	0.012043	-0.020136
0.036795	-0.055299	-0.005857	-0.00776	0.012946	-0.033776
0.036072	-0.043875	0.001283	-0.008398	0.012537	-0.032864
0.032846	-0.045947	0.00544	-0.008305	0.010714	-0.039743
0.025082	-0.051973	0.01159	-0.004263	0.014171	-0.039163
0.027009	-0.050733	0.011806	-0.005619	0.017765	-0.036277
0.024973	-0.033431	0.010336	-0.007225	0.022158	-0.033005
0.026748	-0.009217	0.008159	-0.004389	0.017076	-0.041448
0.023886	-0.001395	0.007694	-0.004256	0.017909	-0.038614
0.020786	-0.009338	0.011173	0.00103	0.018802	-0.046854
0.012672	-0.020471	0.013283	-0.000885	0.0127	-0.041034
0.0113	-0.031404	0.003887	-0.00148	0.007539	-0.039924
0.011938	-0.044451	-0.002672	0.001432	0.009838	-0.043431
0.006687	-0.05604	-0.003763	0.00187	0.00946	-0.044506
-0.007899	-0.062244	-0.00974	0.009338	0.00781	-0.043627
-0.022331	-0.053795	-0.014789	0.006648	0.00844	-0.050652
-0.030972	-0.047074	-0.006906	0.00671	0.001925	-0.059304
-0.044504	-0.038985	-0.009274	0.006365	-0.000788	-0.058237
-0.04697	-0.025612	-0.007882	0.001499	-0.009879	-0.057698
-0.04818	-0.020104	-0.009901	-0.001901	-0.013042	-0.064042
-0.05465	-0.022077	-0.011108	0.00066	-0.003628	-0.053315
-0.05262	-0.034359	-0.012942	0.009179	-0.002161	-0.052313
-0.05077	-0.051225	-0.01499	0.01472	-0.010096	-0.052524
-0.048071	-0.056374	-0.021177	0.021535	-0.012132	-0.049567
-0.055667	-0.05086	-0.014173	0.0116	-0.014873	-0.048314
-0.062336	-0.025783	-0.009879	0.014701	-0.012471	-0.046648
-0.066203	-0.004985	-0.001262	0.018239	-0.021585	-0.036154
-0.067735	0.020968	0.008238	0.012541	-0.021224	-0.035373
-0.058808	0.025372	0.010363	0.014773	-0.022962	-0.033626
-0.052639	0.007347	0.017277	0.019864	-0.018115	-0.031058
-0.048073	-0.013273	0.014851	0.014661	-0.028471	-0.025775
-0.038624	-0.019974	0.018043	0.0212	-0.032279	-0.025241
-0.029577	-0.017462	0.032576	0.019698	-0.040446	-0.023434
-0.022857	-0.005974	0.030105	0.014483	-0.036938	-0.018239
-0.020186	0.008702	0.02235	0.021033	-0.034881	-0.017197
-0.028297	0.024627	0.012144	0.023862	-0.032049	-0.012722
-0.048073	0.02613	0.010442	0.0232	-0.028474	-0.013534
-0.055978	0.035793	-0.003098	0.026838	-0.027787	-0.011386
-0.06211	0.043344	-0.01961	0.023443	-0.026416	-0.017502
-0.0598	0.052129	-0.02441	0.017854	-0.023606	-0.022277
-0.044697	0.06208	-0.032462	0.012637	-0.023671	-0.011894
-0.035475	0.064704	-0.035026	0.006429	-0.020909	-0.018318
-0.021422	0.054864	-0.028364	0.013144	-0.017412	-0.016536
-0.01627	0.03076	-0.025047	0.013206	-0.017511	-0.010622
-0.008622	0.013699	-0.005686	0.017082	-0.017614	-0.011884
0.014851	0.014388	0.009287	0.01496	-0.007524	-0.006066
0.036359	0.030204	0.013208	0.009368	-0.003996	-0.006199
0.047139	0.041167	0.025821	0.010303	0.001705	-0.004765
0.049381	0.044809	0.031237	0.012013	0.000874	-0.005483
0.053268	0.040058	0.034015	0.012986	0.002227	-0.006197
0.04876	0.028638	0.044938	0.014858	0.009387	-0.013477
0.048805	0.029729	0.032658	0.010054	0.010014	-0.015818
0.041014	0.020117	0.033531	0.001782	0.010596	-0.024738
0.014719	0.01092	0.0313	0.006333	0.014859	-0.023843
-0.002361	-0.001204	0.027667	0.001992	0.01989	-0.017347
-0.023738	-0.005993	0.026844	-0.006613	0.016163	-0.014552
-0.034143	-0.00683	0.038566	-0.000494	0.021891	-0.020011
-0.037165	-0.008963	0.046161	-0.005685	0.016048	-0.01113
-0.039435	-0.013007	0.048128	-0.005515	0.021788	-0.012966
-0.046055	-0.01513	0.045071	0.001936	0.018817	-0.015972
-0.054216	-0.017159	0.047068	-0.000221	0.022443	-0.014798
-0.063862	-0.016004	0.051098	-0.000877	0.016615	-0.016372
-0.063428	-0.014767	0.05875	0.001209	0.020284	-0.012074
-0.065095	-0.009218	0.055435	-0.006787	0.018842	-0.012311
-0.053898	-0.012396	0.050659	-0.0031	0.015935	-0.014385
-0.055098	-0.020905	0.051306	-0.008184	0.019576	-0.01522
-0.038931	-0.021098	0.049915	-0.00311	0.02395	-0.015059
-0.039313	-0.030632	0.044944	0.001855	0.018165	-0.0112
-0.017987	-0.020199	0.047332	0.004702	0.021807	-0.010253
-0.007769	-0.020505	0.046923	0.005992	0.018182	-0.00564
0.003694	-0.023604	0.049537	0.004627	0.013016	-0.010462
0.010447	-0.030171	0.055893	0.000965	0.014396	-0.01031
0.025504	-0.035424	0.058825	-0.008565	0.012856	-0.007447
0.029019	-0.037396	0.061733	-0.013492	0.012699	-0.0125
0.03255	-0.038505	0.055269	-0.010522	0.012551	-0.012366
0.031595	-0.041997	0.060417	-0.00614	0.014596	-0.010085
0.035115	-0.04975	0.060555	0.000638	0.020198	-0.01501
0.037522	-0.044206	0.061988	-5.2e-05	0.020694	-0.012079
0.038544	-0.043764	0.060562	0.000777	0.021146	-0.011247
0.030652	-0.034632	0.053883	-0.000536	0.015751	-0.011865
0.026904	-0.03388	0.042219	-0.000446	0.016167	-0.009621
0.020785	-0.045526	0.034898	-0.003296	0.018759	-0.005347
0.014393	-0.052725	0.028755	0.000538	0.02133	-0.006014
0.015548	-0.034738	0.013508	0.001482	0.021708	-0.007456
0.021586	-0.017567	0.00756	0.007483	0.022091	-0.007992
0.020813	-0.019358	-0.002804	0.016431	0.027535	-0.009875
0.00934	-0.021915	-0.019957	0.016558	0.029348	-0.008983
0.001763	-0.02826	-0.032844	0.023941	0.020263	-0.008489
-0.008852	-0.038055	-0.040843	0.021954	0.023498	-0.011146
-0.008799	-0.03349	-0.053399	0.030851	0.019433	-0.012041
-0.012258	-0.035281	-0.069703	0.031873	0.017498	-0.016814
-0.019977	-0.044397	-0.06727	0.027084	0.014833	-0.02176
-0.023508	-0.042281	-0.054116	0.034841	0.009224	-0.031625
-0.026126	-0.049368	-0.046766	0.027197	0.005731	-0.033356
-0.015683	-0.056375	-0.029921	0.022739	0.001324	-0.040985
-0.005571	-0.06026	-0.015394	0.016256	0.001102	-0.049599
0.006731	-0.076708	-0.013361	0.010391	0.00152	-0.050373
0.023038	-0.082767	-0.017639	0.004366	0.006248	-0.04255
0.029229	-0.081592	-0.027713	-0.005784	0.009374	-0.0414
0.028314	-0.07519	-0.031207	-0.008057	0.009486	-0.03411
0.028367	-0.045052	-0.033923	-0.012635	0.010957	-0.021624
0.025896	0.008833	-0.030459	-0.018565	0.011618	-0.013369
0.029783	0.050975	-0.031591	-0.021546	0.0101	-0.007836
0.032657	0.088695	-0.022532	-0.023836	0.007162	-0.002877
0.031661	0.091151	-0.01088	-0.032233	0.009474	0.009311
0.021781	0.066675	-0.007079	-0.033931	0.011856	0.01106
0.017993	0.045508	-0.006499	-0.04241	0.016595	0.016508
0.033743	0.022257	-0.005652	-0.035599	0.023634	0.017437
0.047872	0.013189	0.002833	-0.032529	0.02059	0.01852
0.048783	0.021412	0.00641	-0.027858	0.018279	0.011163
0.047164	0.032722	0.005386	-0.02569	0.011732	0.012652
0.041635	0.053684	0.013552	-0.025531	0.009631	0.004029
0.036405	0.059824	0.002915	-0.029362	0.00625	0.0049
0.035199	0.064723	0.016207	-0.023351	0.009533	0.017612
0.032977	0.045661	0.021685	-0.030938	-0.005345	0.020578
0.039964	0.043261	0.01827	-0.042952	-0.015797	0.024195
0.048449	0.040401	0.019846	-0.046406	-0.023909	0.034293
0.048376	0.041293	0.01694	-0.034794	-0.023874	0.052517
0.044533	0.067281	0.010279	-0.028729	-0.026641	0.058174
0.042978	0.093332	-0.00269	-0.026419	-0.0292	0.067105
0.038702	0.100803	-0.000781	-0.030277	-0.02666	0.063879
0.030243	0.081144	0.005825	-0.02409	-0.024779	0.068566
0.022681	0.062862	0.008805	-0.019083	-0.018523	0.064905
0.023114	0.041018	0.010318	-0.016126	-0.017423	0.058853
0.028223	0.032456	0.006497	-0.016067	-0.014177	0.054729
0.03585	0.041525	0.003134	-0.01954	-0.017497	0.047538
0.032583	0.049916	-0.003924	-0.018455	-0.020862	0.034534
0.030414	0.071499	-0.010119	-0.014685	-0.017617	0.03088
0.027445	0.088683	-0.007953	-0.013674	-0.007845	0.023308
0.024726	0.079598	-0.008889	-0.01126	-0.007486	0.018555
0.016579	0.059584	0.000438	-0.012572	-0.000544	0.017249
0.004865	0.047038	0.01028	-0.011524	0.003467	0.008772
0.000316	0.03625	0.020635	-0.012803	0.011144	0.005333
0.014104	0.036528	0.022735	-0.004533	0.022394	-0.002085
0.027886	0.043043	0.021607	0.002035	0.023472	-0.001335
0.032766	0.044798	0.022517	-0.000806	0.022374	-0.004966
0.029966	0.060227	0.022595	-0.001408	0.01908	-0.012018
0.021046	0.085926	0.019202	-0.003652	0.018757	-0.013244
0.022402	0.096643	0.009193	-0.000789	0.01478	-0.015681
0.019816	0.087862	-0.003355	0.000337	0.015225	-0.009296
0.02023	0.062268	-0.012955	-0.004786	0.010526	-0.015287
0.019583	0.009615	-0.017653	-0.006555	0.006579	-0.010278
0.013583	-0.0173	-0.012365	-0.013242	0.00545	-0.011168
0.012096	-0.000182	-0.016037	-0.006799	0.010824	-0.011818
-0.008376	0.012548	-0.022508	0.00339	0.010293	-0.014591
-0.006026	0.027261	-0.021891	0.008447	0.016958	-0.013922
-0.021608	0.039658	-0.029559	0.012949	0.017701	-0.018323
-0.029523	0.050595	-0.029154	0.013314	0.014648	-0.029323
-0.031989	0.044075	-0.036501	0.015005	0.005732	-0.033761
-0.026356	0.019641	-0.041578	0.020186	-0.003963	-0.030204
-0.021757	0.003309	-0.039822	0.014686	-0.00428	-0.034268
-0.011916	-0.010107	-0.046613	0.022786	-0.000207	-0.028655
-0.01395	-0.020469	-0.041285	0.022994	-0.003442	-0.026202
-0.01748	-0.025725	-0.038395	0.025324	-0.003756	-0.020866
-0.018734	-0.021633	-0.032107	0.030844	0.000216	-0.025624
-0.015549	-0.021627	-0.038191	0.044325	-0.003094	-0.028672
-0.009321	-0.017578	-0.037849	0.032091	-0.001992	-0.023572
-0.005118	-0.016131	-0.036074	0.030102	-0.011049	-0.022408
-0.005953	0.00652	-0.042489	0.018361	-0.012203	-0.037485
0.004462	0.031195	-0.042261	0.015674	-0.011134	-0.036386
0.007483	0.033525	-0.046328	0.011541	-0.014424	-0.035355
0.013864	0.005458	-0.042931	0.011017	-0.004628	-0.032845
0.017835	-0.021004	-0.042577	0.009018	0.000774	-0.029562
0.019132	-0.031142	-0.044643	0.004102	-0.005459	-0.02629
0.019894	-0.021845	-0.0325	0.006567	-0.004437	-0.027849
0.016882	-0.01513	-0.011706	0.00026	-0.002635	-0.02955
0.019968	-0.015404	-0.016746	0.002361	0.001443	-0.02077
0.035677	-0.01819	-0.02287	0.006034	0.001935	-0.018409
0.047613	-0.032294	-0.007709	0.002455	0.00102	-0.019024
0.059956	-0.011701	-0.001939	-0.001406	0.003135	-0.010889
0.059578	0.035024	-0.004621	-0.002297	-0.001967	-0.007593
0.05366	0.062327	0.005972	-0.005428	0.000276	-0.004947
0.034918	0.056214	0.006165	-0.001502	-0.003185	0.003787
0.038989	0.058702	0.001725	-0.001562	-0.011003	-0.003519
0.0232	0.060037	0.013413	-0.012763	-0.00784	-0.003137
0.031789	0.036651	0.019406	-0.014519	-0.009706	-0.003242
0.039112	0.025337	0.022083	-0.015601	-0.007898	-0.001237
0.049771	0.00821	0.02864	-0.0204	-0.006756	0.004167
0.051462	-0.010555	0.030714	-0.019427	-0.004854	0.011801
0.054436	-0.027096	0.034744	-0.022113	-0.000766	0.020732
0.048204	-0.017991	0.039742	-0.018703	0.000333	0.021656
0.034237	-0.032379	0.029044	-0.010828	0.002133	0.020369
0.026003	-0.044437	0.030517	-0.006581	-0.001915	0.021009
0.018882	-0.039909	0.020316	-0.010966	-0.011818	0.019832
0.014586	-0.034665	0.022731	-0.013725	-0.014507	0.014823
0.013789	-0.017739	-0.02755	-0.021521	-0.009244	0.01086
0.020953	-0.009853	-0.023271	-0.012646	0.001108	0.010804
0.016526	-0.027977	-0.032752	-0.015359	0.00415	0.010356
0.007589	-0.033435	-0.024157	-0.006434	0.012261	0.010872
0.001397	-0.045441	-0.036456	-0.009745	0.010902	0.005373
-0.003026	-0.062098	-0.038633	-0.013044	0.012442	-0.000824
-0.003989	-0.067662	-0.046422	-0.012747	0.0089	-0.006118
-0.003061	-0.055583	-0.043316	-0.015491	0.006119	-0.00644
-0.00812	-0.031105	-0.05675	-0.007089	0.008413	-0.01595
-0.008209	-0.0181	-0.046338	-0.009944	0.01224	-0.012702
-0.001416	-0.014125	-0.059073	0.000551	0.010246	-0.020631
-0.000578	-0.022794	-0.053162	0.005688	0.008232	-0.01841
0.000367	-0.037914	-0.049001	0.002878	-0.000297	-0.019913
-0.006549	-0.022518	-0.066604	-0.004339	-0.004459	-0.020719
-0.012435	-0.024987	-0.051826	0.004424	-0.005681	-0.021112
-0.0101	-0.028369	-0.037845	0.0037	-0.014143	-0.020351
-0.00834	-0.041934	-0.034726	0.013817	-0.009468	-0.017205
0.000961	-0.05258	-0.0342	0.006627	-0.001904	-0.019656
-0.004529	-0.04028	-0.038419	0.00515	-0.001599	-0.017618
-0.005367	-0.011996	-0.039257	0.006689	0.008091	-0.018453
-0.011079	-0.005987	-0.024001	0.010224	0.007616	-0.011938
-0.013859	-0.013992	-0.024869	0.009604	0.014358	-0.013492
-0.005454	-0.013909	-0.013792	0.012642	0.00725	-0.016246
-0.001978	-0.010035	-0.003331	0.006842	0.002339	-0.015528
0.011065	-0.018178	-0.018548	0.007445	0.001108	-0.00959
0.018234	-0.023023	-0.011281	0.007539	-0.000852	-0.012409
0.017669	-0.018382	-0.01348	0.003081	9e-05	-0.007366
0.005869	-0.02791	-0.005526	-0.000507	0.00465	-0.007449
-0.004947	-0.023447	0.010976	0.003127	0.003402	-0.005185
-0.005115	-0.005434	0.009974	0.002372	0.012337	-0.002309
-0.003996	0.006083	0.015398	0.00458	0.00964	-0.002168
-0.007889	0.014636	0.004835	0.000874	0.01639	0.001473
-0.013872	0.029744	0.000113	-0.004841	0.015068	-0.001353
-0.015731	0.030192	0.000145	-0.004181	0.011649	0.000445
-0.013296	0.025631	0.015131	-0.008645	0.015531	0.002178
-0.004709	0.026456	0.004878	-0.011871	0.011491	0.011889
-0.005849	0.017304	-0.000457	-0.015522	0.014696	0.009264
-0.00535	0.02182	-0.005342	-0.022209	0.012131	0.010924
-0.004731	0.037183	-0.006873	-0.015009	0.016779	0.010792
-0.007779	0.054624	-0.010002	-0.011544	0.018542	0.014201
-0.014961	0.051856	0.004567	-0.008122	0.018885	0.018375
-0.003402	0.034047	0.012192	-0.003027	0.022067	0.014633
-0.007553	0.037555	0.019286	-0.00964	0.019399	0.014242
-0.014986	0.054391	-0.005037	-0.01319	0.013005	0.00892
-0.01391	0.065819	-0.020472	-0.018264	0.01021	0.007825
-0.010895	0.077281	-0.008956	-0.010139	0.004464	0.004086
-0.02117	0.074104	-0.009157	-0.008672	0.012518	0.006509
-0.01189	0.059511	-0.013842	-0.007011	0.011777	0.00306
-0.012213	0.04072	-0.014965	-0.002465	0.012448	0.001819
-0.018412	0.026872	-0.019366	0.001363	0.010859	0.001992
-0.031439	-0.010764	-0.064326	0.005366	0.004094	-0.003593
-0.049804	-0.046044	-0.087931	0.008596	0.002383	-0.006341
-0.069924	-0.030215	-0.075868	0.009674	-0.002288	-0.009153
-0.082087	0.022796	-0.085374	0.0078	-0.004774	-0.009932
-0.086853	0.093274	-0.068803	0.011825	-0.001483	-0.012796
-0.093779	0.121411	-0.054802	0.013731	-0.00188	-0.017167
-0.098654	0.141239	-0.034301	0.0118	0.001367	-0.013651
-0.106907	0.110965	-0.053524	0.021012	0.003816	-0.01851
-0.092542	0.069842	-0.075051	0.022876	0.000424	-0.020565
-0.072916	0.036636	-0.083323	0.02832	0.000673	-0.021004
-0.064372	0.02213	-0.124942	0.020549	-0.003411	-0.017382
-0.053251	0.042085	-0.137412	0.023096	-0.008959	-0.019268
-0.067104	0.064863	-0.127885	0.018282	-0.00863	-0.019153
-0.083261	0.078025	-0.125159	0.016329	-0.010451	-0.017517
-0.085649	0.082058	-0.121463	0.015801	-0.007135	-0.015828
-0.090999	0.079598	-0.107322	0.010206	0.0013	-0.015751
-0.092015	0.070398	-0.08322	0.009608	0.006098	-0.012516
-0.0775	0.051635	-0.086564	0.010542	0.005822	-0.013489
-0.048535	0.043834	-0.114978	0.012051	-0.000195	-0.010029
-0.030185	0.029401	-0.091685	0.009238	-0.001115	-0.009474
-0.037039	0.025319	-0.076959	0.004834	0.005319	-0.005297
-0.047205	0.023244	-0.07771	0.001973	0.004481	-0.005345
-0.047126	0.011735	-0.065384	-0.009163	0.010289	0.003818
-0.051767	0.007711	-0.046833	-0.006258	0.011697	0.004655
-0.056351	0.028799	-0.043877	-0.009943	0.014642	0.005345
-0.051866	0.04892	-0.037069	-0.012949	0.018357	0.00683
-0.040337	0.058394	-0.054376	-0.008163	0.017805	0.014434
-0.038032	0.05114	-0.07478	-0.00619	0.022366	0.016942
-0.03682	0.035833	-0.09203	-0.002733	0.0335	0.01734
-0.033783	0.009578	-0.109931	-0.000194	0.027951	0.024354
-0.034436	-0.011458	-0.131067	-0.001791	0.027442	0.022572
-0.030674	-0.007541	-0.134958	0.001681	0.021811	0.022388
-0.025745	0.004679	-0.12531	-0.007247	0.01401	0.023974
-0.010314	0.008945	-0.11115	-0.005699	0.010541	0.014842
0.001831	0.009064	-0.093301	-0.007912	0.012842	0.012727
0.017416	0.006803	-0.086824	-0.00934	0.022325	0.011187
0.021059	0.005442	-0.078871	-0.00413	0.025894	0.008964
0.020884	0.009921	-0.076126	-0.008304	0.027903	0.006418
0.019878	0.028978	-0.075174	-0.006677	0.026909	0.006896
0.013418	0.048298	-0.073792	-0.007101	0.02876	0.003626
0.012358	0.060473	-0.073273	-0.010312	0.023923	-0.001886
0.020135	0.059549	-0.069181	-0.010537	0.019744	-0.008812
0.040524	0.047322	-0.070728	-0.013131	0.0163	-0.007863
0.05355	0.048971	-0.076209	-0.011342	0.016447	-0.006809
0.058358	0.070593	-0.064793	-0.017341	0.020163	-0.013244
0.06541	0.076049	-0.052561	-0.010524	0.021027	-0.009181
0.07274	0.067342	-0.051728	-0.007012	0.01309	-0.018152
0.083283	0.067122	-0.040239	-0.005252	0.008805	-0.016155
0.08458	0.070456	-0.037229	0.000176	0.008127	-0.01545
0.074867	0.064566	-0.037663	0.004153	0.006761	-0.016169
0.067322	0.058218	-0.030731	0.001405	0.002554	-0.011851
0.070847	0.053371	-0.027963	0.005925	-0.000869	-0.00874
0.082417	0.045833	-0.019845	0.011262	-0.007903	-0.009942
0.09352	0.048103	-0.013141	0.004827	-0.00254	-0.006403
0.097805	0.076165	-0.004358	0.008074	-0.009563	-0.011975
0.094805	0.102818	-0.000359	0.012673	-0.007795	-0.014624
0.09242	0.117418	-0.000724	0.012155	-0.008919	-0.016664
0.095737	0.11696	0.001994	0.001376	-0.010742	-0.016076
0.092307	0.089909	-0.005231	0.010967	-0.009634	-0.015709
0.101429	0.064503	-0.01324	0.006057	-0.012127	-0.017917
0.099023	0.050186	-0.015264	0.011315	-0.002968	-0.019229
0.09986	0.060723	-0.018055	0.014139	-0.000295	-0.011175
0.101831	0.074543	-0.00479	0.015851	-0.002744	-0.016892
0.105998	0.099456	0.007106	0.016568	-0.005096	-0.013865
0.105613	0.115685	0.00777	0.020176	-0.000882	-0.010747
0.104879	0.120859	0.011181	0.023145	-0.003914	-0.011955
0.100233	0.112501	0.010257	0.017281	-0.006175	-0.010409
0.094589	0.083213	0.005203	0.005	-0.005585	-0.013371
0.099093	0.051729	-0.002701	-0.005044	-0.00067	-0.017751
0.10148	0.040351	-0.004518	-0.015415	-0.001516	-0.009768
0.106423	0.031865	-0.00461	-0.022713	-0.005277	-0.008894
0.107441	0.038491	0.009784	-0.02564	0.001888	-0.008658
0.099835	0.069541	0.023397	-0.029458	-0.002571	-0.001874
0.104323	0.091709	0.021563	-0.025281	-0.003405	0.005145
0.107315	0.089366	0.013725	-0.021713	0.003023	0.007733
0.108873	0.077732	0.018706	-0.028413	-0.006477	0.012285
0.107206	0.065877	0.019123	-0.024667	-0.005069	0.006182
0.092585	0.048965	0.036799	-0.025521	-0.002883	0.009317
0.085259	0.044349	0.043495	-0.027115	-0.00356	0.012401
0.084341	0.045676	0.039189	-0.020117	0.008193	0.020016
0.088655	0.036858	0.040568	-0.013467	0.008311	0.011718
0.097877	0.034715	0.037973	-0.014592	0.010024	0.021357
0.100904	0.034342	0.030626	-0.010217	0.01677	0.014521
0.105541	0.024083	0.020144	-0.004568	0.011226	0.013591
0.103236	0.022555	0.022945	-0.007629	-9.8e-05	0.011009
0.103219	0.023731	0.047195	-0.011309	-0.012125	0.003344
0.102344	0.030806	0.066124	-0.012358	-0.002266	0.007126
0.105382	0.050706	0.057962	-0.002364	0.001064	0.006676
0.110152	0.05482	0.04688	0.004767	0.011698	0.003921
0.108511	0.036239	0.046687	0.008207	0.018722	0.002565
0.105717	0.031564	0.039727	0.000836	0.028599	-0.002626
0.112304	0.022951	0.018286	0.001296	0.029705	-0.000915
0.110399	0.018407	0.019833	0.004107	0.025672	-0.006252
0.105424	0.021243	0.027735	-0.001783	0.02019	-0.013227
0.097824	0.033222	0.017393	-0.002249	0.010425	-0.00551
0.09901	0.039779	0.005783	-0.001101	0.017385	-0.004344
0.093951	0.023863	0.003824	0.002309	0.019927	-0.005296
0.092049	0.015659	0.003342	0.002706	0.023223	-0.00268
0.093719	-0.002338	0.005261	0.00034	0.025746	-0.005869
0.086696	-0.016791	0.007114	0.002136	0.024598	-0.000196
0.088358	-0.02336	0.019089	0.009269	0.024154	-0.00451
0.098328	-0.016297	0.017119	0.001738	0.020811	-0.004788
0.097741	-0.022463	0.020121	-0.001324	0.015972	-0.008572
0.093178	-0.047116	0.025328	-0.002346	0.015484	-0.006482
0.093997	-0.063867	0.013717	-0.002483	0.009851	-0.009481
0.0911	-0.074311	0.008386	0.001695	0.013683	-0.010263
0.092504	-0.074142	0.008596	0.00435	0.013882	-0.008185
0.086699	-0.05469	0.012784	0.007065	0.01259	-0.008239
0.078009	-0.031754	0.021326	0.006038	0.013448	-0.003963
0.076682	-0.02187	0.017134	0.003644	0.009887	-0.002581
0.081189	-0.026272	0.013995	-0.000115	0.002677	-0.004828
0.087156	-0.038809	0.013899	0.004881	-0.003062	-0.00832
0.093471	-0.041162	0.015154	0.003353	-0.002976	-0.012756
0.095713	-0.037016	0.006859	0.011747	-0.005725	-0.007514
0.084707	-0.037747	0.012326	0.011594	-0.0063	-0.009762
0.070741	-0.059843	0.004235	0.012157	-0.000335	-0.011305
0.060672	-0.077633	0.002679	0.00828	-0.003845	-0.009311
0.051548	-0.087104	-0.004183	0.014707	-0.002299	-0.011428
0.056311	-0.090227	-0.003965	0.008111	-0.010202	-0.017402
0.071397	-0.079674	0.001771	0.007888	-0.010044	-0.017425
0.076881	-0.076382	0.001471	0.008961	-0.011308	-0.011593
0.080878	-0.072652	0.001731	0.002925	-0.012622	-0.011746
0.076226	-0.068753	-0.009778	0.004928	-0.012518	-0.012452
0.057884	-0.055933	-0.015682	0.010484	-0.010928	-0.010178
0.033402	-0.060607	-0.014889	0.012526	-0.014457	-0.012349
0.016926	-0.070043	-0.011746	0.01378	-0.012907	-0.011668
0.009419	-0.080625	-0.010642	0.015678	-0.014995	-0.008002
-0.003135	-0.093743	-0.000194	0.020513	-0.014872	-0.006406
-0.011138	-0.101496	0.001358	0.020966	-0.013291	-0.004199
-0.017084	-0.102983	0.009962	0.01431	-0.009569	-0.008012
-0.005819	-0.107459	0.007702	0.009002	-0.008755	-0.007419
-0.010146	-0.107612	0.003637	0.004483	-0.006529	-0.008292
-0.011777	-0.107402	-0.006399	-0.005772	-0.009428	-0.012179
-0.022263	-0.094806	-0.011025	-0.005311	-0.013039	-0.007846
-0.028	-0.084107	-0.017199	-0.000395	-0.008706	-0.006306
-0.031782	-0.073832	-0.007457	0.005176	-0.010176	-0.002501
-0.033027	-0.049932	-0.008019	0.010019	-0.010179	0.000597
-0.02583	-0.03877	-0.005424	0.008205	-0.008702	0.007199
-0.021932	-0.051144	-0.005463	0.000212	-0.014537	-0.000843
-0.015465	-0.049911	-0.009965	-0.003598	-0.01014	-0.002287
-0.013178	-0.036882	-0.019779	-0.010277	-0.014466	-0.005261
-0.017264	-0.040188	-0.017942	-0.011356	-0.015818	-0.000142
-0.037303	-0.039498	-0.020713	-0.016822	-0.012059	0.005557
-0.046318	-0.034657	-0.019808	-0.02532	-0.006807	0.014864
-0.04431	-0.029443	-0.015144	-0.017507	0.000574	0.012282
-0.036394	-0.032624	-0.019754	-0.012906	0.000729	0.021255
-0.03353	-0.034065	-0.01505	-0.013799	-0.002047	0.016373
-0.020958	-0.026533	-0.005428	-0.010456	-0.007703	0.015993
-0.014662	-0.011453	-0.004784	-0.005608	-0.011912	0.014143
-0.019256	0.002431	0.000815	0.000731	-0.007376	0.011466
-0.02106	-0.000933	0.006734	0.001253	-0.010808	0.007942
-0.024739	0.001845	0.007585	0.000182	-0.004824	0.011539
-0.023966	0.006731	0.011328	-0.002823	0.003275	0.007004
-0.020391	-0.000479	0.009951	-0.002817	-0.000346	0.000369
-0.012446	-0.018015	0.011323	-0.007398	0.004763	0.003007
-0.010914	-0.007345	-0.000286	-0.004742	0.001848	0.008012
-0.015502	0.012592	-0.005004	-0.001197	-0.002572	0.007242
-0.019458	0.038182	-0.014931	0.006638	0.005418	0.009371
-0.019592	0.052212	-0.023129	0.002016	0.017716	0.016253
-0.018516	0.02991	-0.027885	-0.000307	0.031401	0.019568
-0.013342	0.00833	-0.033195	0.004237	0.031204	0.009457
-0.00724	-0.015602	-0.03123	0.011387	0.018734	0.007684
-0.006346	-0.018246	-0.027492	0.010602	0.001906	0.000842
-0.008105	-0.011335	-0.030553	0.007338	0.007722	0.002716
0.000618	-0.016747	-0.031362	0.003536	0.017855	-0.003998
0.01719	-0.019152	-0.038114	0.00242	0.021481	-0.00459
0.032017	-0.013754	-0.035712	0.001929	0.01356	-0.00427
0.049555	-0.010941	-0.041496	0.000468	0.008702	0.00191
0.05627	0.002352	-0.054155	-0.002524	0.009062	0.007402
0.067188	0.014271	-0.048672	-0.00147	0.011574	-0.006357
0.071898	0.036763	-0.048364	0.002623	-0.005399	-0.001551
0.077594	0.062709	-0.044148	0.01131	-0.015848	-0.009422
0.09198	0.077584	-0.046462	0.016039	-0.024709	-0.008564
0.108803	0.078009	-0.046559	0.014857	-0.026207	-0.007758
0.127987	0.067613	-0.040396	0.015354	-0.02915	-0.017729
0.137383	0.060392	-0.029989	0.013859	-0.025343	-0.009669
0.140695	0.069982	-0.012753	0.008261	-0.029478	-0.01338
0.139984	0.09358	0.014962	0.012843	-0.032847	-0.017605
0.132156	0.122068	0.046884	0.018066	-0.026692	-0.019037
0.124796	0.125749	0.085029	0.011064	-0.028543	-0.025247
0.127776	0.116869	0.10051	0.013716	-0.025394	-0.037117
0.120334	0.094638	0.114237	0.018349	-0.025153	-0.039598
0.115642	0.070961	0.131857	0.009594	-0.018358	-0.028794
0.091338	0.05657	0.14716	0.01643	-0.010972	-0.027798
0.07508	0.040697	0.149577	0.017381	-0.005829	-0.023306
0.051651	0.035363	0.149039	0.025707	0.001415	-0.021537
0.036333	0.038238	0.158752	0.026029	-0.0096	-0.019131
0.030407	0.042379	0.16369	0.020614	-0.016303	-0.017739
0.033646	0.042549	0.161095	0.019088	-0.015075	-0.023004
0.027944	0.053461	0.162425	0.016043	-0.016033	-0.022713
0.025455	0.057694	0.14047	0.005851	-0.015572	-0.023602
0.020782	0.046391	0.127823	-0.004958	-0.010761	-0.024142
0.011898	0.039908	0.095713	-0.007681	-0.005283	-0.023282
0.003181	0.032107	0.065087	-0.00873	0.010267	-0.026933
0.008037	0.036677	0.044599	-0.007851	0.012691	-0.017541
0.018052	0.06284	0.030574	-0.003072	0.016398	-0.014635
0.012512	0.087676	0.022638	-0.005415	0.022114	-0.013436
0.015766	0.089768	0.021508	-0.009111	0.029155	-0.01305
0.018216	0.063303	0.01773	-0.010714	0.030295	-0.006123
0.024565	0.020225	0.006618	-0.014908	0.026936	-0.007389
0.030633	-0.01592	-0.000843	-0.010382	0.025727	-0.007021
0.029862	-0.04644	-0.002864	-0.005157	0.023022	-0.004454
0.026976	-0.059498	-0.015697	-0.002878	0.024638	0.000896
0.008528	-0.063226	-0.013262	0.000527	0.027573	-0.00752
-0.013704	-0.061053	-0.00624	0.00223	0.023952	-0.005088
-0.024315	-0.055975	-0.000817	-0.010233	0.025982	-0.013337
-0.034992	-0.056065	0.00017	-0.00832	0.019288	-0.011919
-0.034954	-0.078988	-0.004474	-0.007301	0.023483	-0.001935
-0.034427	-0.082206	-0.003658	-0.009524	0.023183	-0.00445
-0.031469	-0.081752	-0.00449	-0.013064	0.022046	-0.009939
-0.034834	-0.070126	0.002341	-0.018135	0.020844	-0.011097
-0.038233	-0.058064	0.000411	-0.023369	0.020325	-0.00498
-0.039413	-0.057797	0.003659	-0.024903	0.017549	0.001839
-0.040497	-0.072597	0.002479	-0.022585	0.019804	0.00212
-0.038792	-0.09131	-0.009902	-0.018166	0.021333	0.006053
-0.034202	-0.113184	-0.014815	-0.018606	0.014055	0.002576
-0.023202	-0.122696	-0.019781	-0.006804	0.006032	0.005182
-0.015664	-0.102386	-0.023527	-0.007733	-0.004273	-0.004243
-0.009685	-0.052914	-0.014856	0.001418	-0.008782	-0.007033
-0.011379	-0.021026	0.003388	0.001122	-0.007465	-0.008101
-0.029	-0.019031	-0.000528	0.006123	-0.009856	-0.014261
-0.048655	-0.043993	-0.000357	0.005764	-0.014419	-0.00832
-0.057665	-0.109729	-0.020495	0.0071	-0.015435	-0.009693
-0.055952	-0.134973	-0.02262	0.019299	-0.01571	-0.008002
-0.045208	-0.130493	-0.017571	0.027929	-0.0211	-0.007921
-0.042352	-0.106426	-0.013313	0.023711	-0.019307	-0.015546
-0.031545	-0.064609	-0.006468	0.024583	-0.027024	-0.02094
-0.025216	-0.035356	0.001233	0.019684	-0.034781	-0.025924
-0.038288	-0.033879	0.00405	0.020668	-0.038184	-0.030987
-0.049977	-0.038542	0.006255	0.026784	-0.037929	-0.036799
-0.053369	-0.039476	-0.00596	0.024384	-0.036995	-0.0495
-0.044969	-0.045183	-0.016524	0.018012	-0.035328	-0.048559
-0.035336	-0.042526	-0.015645	0.018402	-0.041733	-0.055425
-0.029346	-0.025563	-0.022402	0.014989	-0.044526	-0.055179
-0.012068	-0.001027	-0.016955	0.002728	-0.046552	-0.050196
-0.001032	0.02642	-0.016668	0.003654	-0.045639	-0.049307
0.006271	0.037751	-0.014728	-6.5e-05	-0.045305	-0.039863
0.019323	0.034458	-0.005313	-0.0081	-0.044833	-0.035614
0.036985	0.036871	-0.001042	-0.000461	-0.038298	-0.022969
0.039282	0.042447	0.007386	0.00193	-0.030107	-0.010271
0.042473	0.051284	0.002765	0.007241	-0.020259	-0.005196
0.03713	0.069238	-0.001105	0.004998	-0.013765	0.00222
0.035282	0.068959	-0.010288	0.004831	-0.008467	0.005004
0.035582	0.068804	-0.014861	0.000165	-0.009471	0.004473
0.038135	0.072453	-0.029491	-0.014009	-0.008121	-0.000363
0.037538	0.077191	-0.018816	-0.025506	-0.013113	-0.00261
0.044876	0.069677	-0.012457	-0.032192	-0.016394	-0.000826
0.052279	0.060125	-0.000305	-0.031728	-0.012921	-0.000751
0.064827	0.053328	0.004538	-0.029535	-0.005527	0.009803
0.06877	0.064757	-0.00262	-0.027831	-0.010295	0.004634
0.054852	0.078574	-0.002022	-0.017673	0.001152	0.004235
0.041277	0.096191	0.003	-0.014251	0.002603	0.00606
0.029999	0.100545	0.006935	-0.018913	-0.001598	0.006395
0.027423	0.08286	0.013543	-0.01062	-0.002749	0.008607
0.038297	0.056327	0.010973	-0.0125	-0.001628	0.008372
0.051753	0.032508	0.011184	-0.009212	0.009745	0.003845
0.056643	0.034411	0.00863	-0.001573	0.00515	-0.001224
0.057117	0.050324	0.010768	0.000801	0.013727	-0.000693
0.058233	0.070195	0.001917	0.004728	0.017936	-0.003797
0.053713	0.078057	-0.001749	0.005071	0.022099	-0.008459
0.04942	0.075146	-0.008939	0.002512	0.023328	-0.012528
0.046054	0.064307	0.000465	0.00637	0.020197	-0.010016
0.035232	0.04224	0.000898	0.008902	0.014831	-0.010567
0.052159	0.023239	0.006228	0.005772	0.01596	-0.015079
0.063067	0.030256	0.006552	0.003479	0.01919	-0.020497
0.075288	0.032534	0.011002	0.003284	0.028877	-0.018802
0.075039	0.062494	0.000445	-0.001963	0.031119	-0.013741
0.061875	0.096587	-0.007194	-0.007611	0.030265	-0.016147
0.053056	0.112314	-0.022277	-0.016857	0.036524	-0.015875
0.03711	0.092041	-0.025206	-0.016705	0.035353	-0.008897
0.039968	0.053812	-0.034352	-0.012836	0.036924	-0.001167
0.031145	0.023784	-0.017106	-0.002929	0.038354	0.000868
0.023521	0.008719	-0.012655	-0.002433	0.038266	0.002627
0.033757	0.008303	-0.002593	-0.005385	0.031509	-0.000115
0.039802	0.010248	-0.005856	-0.008409	0.032662	0.00284
0.053956	0.017262	-0.009279	-0.011119	0.028574	-0.002993
0.053176	0.010816	-0.006321	-0.012231	0.027288	-0.011105
0.052524	0.010751	-0.00787	-0.007898	0.022353	-0.002449
0.043899	0.01209	-0.019792	-0.006125	0.024547	-0.005498
0.033436	0.002052	-0.02316	-0.007233	0.027396	-0.007932
0.027807	-0.01056	-0.03133	-0.004824	0.030891	-0.003745
0.01021	-0.016382	-0.030173	0.001843	0.025568	0.006416
0.007235	0.00124	-0.033432	-0.000474	0.020828	-0.000347
-0.002005	0.022187	-0.03966	0.001424	0.011706	-0.000458
-0.003064	0.037471	-0.040602	-0.004599	0.008337	-0.002292
-0.005405	0.048361	-0.032565	-0.005611	0.007874	0.000266
-0.007527	0.047123	-0.029096	-0.002682	0.001506	-0.007292
-0.004736	0.042349	-0.035253	-0.004879	0.005272	-0.012154
-0.001454	0.034439	-0.038073	-0.005923	0.009058	-0.004674
0.005407	0.038072	-0.029066	-0.007551	0.002593	-0.002221
0.011596	0.047261	-0.034349	-0.012142	-0.001686	0.001648
0.012303	0.047211	-0.025525	-0.013755	-0.00158	0.00264
0.015715	0.031758	-0.02491	-0.010526	0.000772	0.012474
0.018329	0.01279	-0.021074	-0.009263	-0.007732	0.011476
0.024315	0.01286	-0.019303	-0.01608	-0.016145	0.010401
0.015186	0.016323	-0.018114	-0.018744	-0.026587	0.015229
0.010681	0.019761	-0.01565	-0.016913	-0.034079	0.013647
0.011661	0.022268	-0.02047	-0.009392	-0.037802	0.015082
0.007825	0.024979	-0.015962	-0.007619	-0.042881	0.011973
0.020578	0.031632	-0.017088	-0.003153	-0.044905	0.015412
0.031816	0.047595	-0.025422	-0.008058	-0.046865	0.01422
0.047237	0.030986	-0.025333	-0.004219	-0.045113	0.011719
0.045619	0.020355	-0.026057	0.00101	-0.043268	0.010641
0.039363	0.010786	-0.039641	0.003316	-0.04497	0.008724
0.013622	0.005299	-0.037475	0.002588	-0.034947	0.010298
0.01432	-0.002917	-0.035858	0.005042	-0.033663	0.00107
0.011917	0.004926	-0.035953	0.010175	-0.034475	-0.000128
0.006857	0.009366	-0.040511	0.008221	-0.030922	-0.008826
0.007361	-0.014867	-0.030291	-0.00188	-0.026613	-0.011961
0.014458	-0.027431	-0.038236	0.001079	-0.020117	-0.01336
0.009639	-0.027671	-0.034102	0.008289	-0.017216	-0.010342
0.007804	-0.042904	-0.025383	0.009781	-0.0107	-0.011792
0.018489	-0.038071	-0.034762	0.014885	-0.004883	-0.013118
0.024546	-0.045032	-0.006347	0.017785	-0.000519	-0.014417
0.025488	-0.036832	0.007658	0.01774	0.002373	-0.014962
0.017914	-0.001692	0.007167	0.013364	-0.003493	-0.016984
0.005036	0.005637	0.020978	0.014092	0.000825	-0.01963
0.001716	-0.013821	0.026903	0.011041	0.002245	-0.017231
0.010827	-0.029154	0.003655	0.006602	0.005107	-0.018395
0.012783	-0.043099	0.005172	0.004939	0.003643	-0.01509
0.019121	-0.040509	-0.015688	0.006155	0.000743	-0.012282
0.017639	-0.039288	-0.038493	0.004498	0.004371	-0.011644
0.013083	-0.048683	-0.042975	0.010153	0.002195	-0.012965
0.012251	-0.063727	-0.033184	0.017168	0.003657	-0.01061
0.027148	-0.075302	-0.032432	0.014952	0.005092	-0.017206
0.016281	-0.067031	-0.020462	0.014032	0.004363	-0.01792
0.000873	-0.041754	-0.013661	0.012407	0.007943	-0.017994
-0.006135	-0.009349	-0.007861	0.011611	0.011434	-0.020909
0.003109	-0.001514	-0.04155	0.01	0.015619	-0.020144
0.012738	-0.015713	-0.041781	0.009698	0.016888	-0.013498
0.009603	-0.028368	-0.059022	0.01614	0.01301	-0.014563
0.002314	-0.037136	-0.06788	0.010901	0.017852	-0.014441
-0.009371	-0.047554	-0.054084	0.013681	0.015376	-0.014732
-0.004145	-0.069127	-0.058682	0.016216	0.019495	-0.006297
0.004362	-0.06986	-0.040264	0.012522	0.014818	-0.010273
0.019026	-0.052312	-0.011191	0.014471	0.013063	-0.006876
0.005507	-0.032228	0.001934	0.012239	0.018548	-0.010834
-0.010063	-0.018895	-0.003315	0.013526	0.019632	-0.009552
-0.014025	-0.030783	-0.038909	0.006766	0.011947	-0.006201
-0.012996	-0.038594	-0.032253	0.006466	0.015858	0.001635
-0.01167	-0.038535	-0.034818	-0.002153	0.016005	-0.00522
0.001137	-0.033097	-0.073183	-0.003756	0.017595	-0.000364
0.019727	-0.019268	-0.07775	-0.011871	0.012603	0.004286
0.021345	-0.001302	-0.058326	-0.005299	0.014823	0.004894
0.017581	-0.000943	-0.048957	-0.01473	0.019902	0.007168
0.004214	-0.008246	-0.02696	-0.019097	0.019875	0.011037
-0.009998	0.013518	-0.002568	-0.022923	0.014788	0.021523
-0.025121	0.059768	0.014881	-0.021256	0.008889	0.016934
-0.032382	0.084391	0.013065	-0.016324	0.003821	0.024865
-0.041035	0.061053	0.015056	-0.01769	0.011805	0.023155
-0.037759	0.031486	-0.002745	-0.020817	0.009712	0.032289
-0.043129	0.006691	0.003493	-0.016348	0.014095	0.029283
-0.05027	-0.003477	0.010207	-0.016505	0.004743	0.035617
-0.050978	0.003524	-0.003724	-0.018483	-0.001771	0.02813
-0.032914	0.028661	-0.047288	-0.019077	-0.000286	0.024213
-0.027915	0.070772	-0.069394	-0.013122	-0.003857	0.02038
-0.041309	0.083482	-0.054193	-0.013328	-7.5e-05	0.030039
-0.056169	0.081205	-0.061872	-0.009416	0.004366	0.021592
-0.059212	0.07857	-0.06927	-0.008665	0.008806	0.023916
-0.064507	0.076924	-0.048581	-0.008378	0.000801	0.016853
-0.060797	0.079883	-0.039565	-0.010173	1e-06	0.006821
-0.045588	0.092798	-0.074873	-0.007784	-0.005865	0.004135
-0.02379	0.106173	-0.107699	-0.000389	-0.005226	0.006562
-0.012614	0.107439	-0.119517	-0.000835	-0.000233	0.002902
-0.026821	0.092384	-0.109018	0.001524	-0.00251	0.003675
-0.047832	0.070796	-0.086026	0.001867	0.005344	-0.001438
-0.048231	0.054667	-0.065116	0.006288	0.006694	0.003813
-0.037318	0.063288	-0.030097	0.011812	0.009466	-0.006119
-0.039491	0.079225	0.008408	0.011229	0.006496	-0.006648
-0.030772	0.079043	0.020217	0.015717	0.005043	-0.008396
0.004031	0.083356	-0.017885	0.006444	0.003602	-0.01401
0.011141	0.078363	0.002466	0.005104	0.008695	-0.017173
-0.002943	0.066809	0.006824	0.007784	0.005151	-0.008506
-0.01544	0.05638	0.002742	0.006264	0.008872	-0.007806
-0.012135	0.028343	0.00627	0.012719	0.006083	-0.007495
-0.016002	0.002879	0.016856	0.009689	0.004042	-0.007336
-0.021257	-0.013078	0.042577	0.011789	-0.004517	-0.010496
-0.026194	-0.017573	0.070789	0.013012	-0.008679	-0.008564
-0.031394	-0.020292	0.076494	0.017971	-0.01068	-0.010182
-0.022419	-0.033036	0.05538	0.01929	-0.007578	-0.01192
-0.01032	-0.047919	0.030769	0.018994	-0.007334	-0.007259
-0.010968	-0.045583	0.009183	0.013639	0.000881	-0.003479
-0.015871	-0.044585	-0.022857	0.011374	0.00975	-0.006092
-0.030239	-0.045409	-0.042615	0.016909	0.016435	-0.001132
-0.028821	-0.039986	-0.08041	0.024033	0.016509	-0.001096
-0.029002	-0.040561	-0.086999	0.023925	0.012212	-0.003986
-0.032828	-0.015584	-0.106253	0.023864	0.010794	-0.008977
-0.044864	-0.001877	-0.105043	0.01205	0.007191	-0.009193
-0.050669	0.01667	-0.113733	0.006856	0.001369	-0.011435
-0.048663	0.016172	-0.10581	0.010282	0.012261	-0.008464
-0.04721	0.01184	-0.099671	0.012368	0.012938	-0.009177
-0.05192	0.014734	-0.098486	0.014433	0.015754	-0.008416
-0.055596	0.020402	-0.101505	0.01075	0.027233	-0.009938
-0.045453	0.016514	-0.096372	0.002673	0.026249	-0.009238
-0.043877	0.012173	-0.090644	0.001018	0.023042	-0.003199
-0.036238	0.007766	-0.087798	-0.002704	0.021975	-0.00153
-0.032404	0.025992	-0.090447	0.000117	0.020885	0.000357
-0.036139	0.027879	-0.079395	-0.004955	0.021945	-0.001612
-0.036028	0.029759	-0.072783	-0.005712	0.01861	-0.001239
-0.035161	0.019971	-0.067438	-0.001476	0.019631	0.002932
-0.023801	0.009248	-0.063316	0.002172	0.014075	0.001362
-0.016422	0.01023	-0.057889	0.003635	0.013586	-0.000225
-0.005923	0.012727	-0.050377	-0.002289	0.017477	0.002342
-0.005415	0.013109	-0.061244	-0.004715	0.015569	0.010113
-0.001225	0.013049	-0.055584	-0.005531	0.021606	0.012131
-0.008556	0.014873	-0.046636	-0.005035	0.020433	0.017925
-0.004629	0.023874	-0.043689	-0.00805	0.01923	0.01793
-0.000457	0.038722	-0.046075	-0.002298	0.017997	0.016077
0.000202	0.053625	-0.05153	-0.008294	0.003731	0.016906
-0.000785	0.051069	-0.053209	-0.009919	-0.000341	0.017752
0.001367	0.052703	-0.048272	-0.009273	-0.005845	0.014966
0.007378	0.054643	-0.048243	-0.012305	-0.00989	0.014855
0.011991	0.056332	-0.051894	-0.008171	-0.005196	0.019891
0.014395	0.060222	-0.0544	-0.00012	-0.008561	0.014846
0.00643	0.060068	-0.055144	-0.006007	-0.011176	0.014474
0.002775	0.062127	-0.051851	-0.019812	-0.005822	0.011638
-0.001059	0.062721	-0.047407	-0.019918	-0.014953	0.012822
0.0052	0.065332	-0.031468	-0.014328	-0.010932	0.01907
0.013662	0.064777	-0.030904	-0.012899	-0.004002	0.017174
0.023434	0.067073	-0.018913	-0.011523	-0.010106	0.016066
0.026594	0.071401	-0.022503	-0.011569	0.002684	0.013445
0.023572	0.070129	-0.016953	-0.015982	-0.005607	0.010108
0.02128	0.076148	-0.015415	-0.02652	-0.00898	0.010016
0.016587	0.080705	-0.00972	-0.027496	-0.004775	0.011173
0.026877	0.075478	-0.000337	-0.026415	0.003101	0.016728
0.039649	0.044451	-0.005281	-0.026012	0.006646	0.019384
0.046004	0.026547	-0.012746	-0.02495	0.011671	0.023577
0.039886	0.016171	-0.019934	-0.028885	0.010158	0.023326
0.033832	0.029342	-0.016128	-0.02913	0.006452	0.020338
0.03426	0.057241	-0.014391	-0.030948	-0.007403	0.021022
0.030172	0.094218	-0.015428	-0.026956	-0.01101	0.020393
0.032718	0.105684	-0.010519	-0.02084	-0.013106	0.02124
0.034724	0.084179	-0.003694	-0.01403	-0.00423	0.022736
0.044353	0.069376	0.002713	-0.001473	-0.007665	0.026559
0.051868	0.050496	-0.00083	0.002445	-0.006752	0.027203
0.055728	0.033618	0.002221	0.000694	-0.013136	0.022586
0.059269	0.041218	-6.1e-05	-0.001894	-0.018758	0.023587
0.063495	0.05469	0.000338	0.004565	-0.016413	0.014425
0.066894	0.068952	-0.008978	0.004415	-0.014056	0.009956
0.071532	0.082111	-0.003993	0.00869	-0.013901	0.005435
0.076185	0.086727	-0.008531	0.01442	-0.016687	0.003008
0.069049	0.074219	-0.001292	0.015085	-0.014439	0.002451
0.072608	0.069213	0.002584	0.01533	-0.011589	-0.006284
0.071368	0.061712	0.006774	0.016176	-0.010237	-0.007828
0.071151	0.053818	0.010516	0.013363	-0.011061	-0.006724
0.079849	0.043203	0.010915	0.0085	-0.007584	-0.008024
0.079783	0.023157	0.010651	0.005163	0.003833	-0.010123
0.075101	0.016289	0.000703	0.005549	0.008654	-0.014981
0.077211	0.014086	-0.013894	0.002275	0.008358	-0.01846
0.080029	0.014382	-0.010149	0.000977	0.006657	-0.014608
0.07512	0.019021	-0.013406	-0.002386	0.010776	-0.015887
0.074171	0.027507	-0.010216	-0.009461	0.016383	-0.015073
0.074397	0.009131	-0.000209	-0.007145	0.018371	-0.012487
0.072828	-0.007362	-0.00394	-0.001899	0.023265	-0.011901
0.069381	-0.011377	0.004517	-0.004709	0.020156	-0.01063
0.063437	-0.001648	-0.002547	-0.000351	0.015636	-0.007559
0.063191	0.001525	-0.00893	-0.001693	0.016204	-0.011046
0.058419	-0.004674	-0.01463	-0.008201	0.018972	-0.01244
0.064835	-0.007981	-0.026989	-0.012521	0.032693	-0.015242
0.074239	-0.0078	-0.028815	-0.008213	0.042782	-0.014822
0.071701	-0.017024	-0.028885	-0.000879	0.041192	-0.020611
0.070497	-0.023618	-0.016934	0.005655	0.03083	-0.025409
0.060102	-0.019855	-0.018419	0.011493	0.021887	-0.032946
0.059815	-0.010169	-0.008482	0.003907	0.010813	-0.028437
0.068251	-0.002016	-0.007379	0.000165	0.008463	-0.032566
0.079407	-0.002084	-0.009854	0.001391	0.007604	-0.031553
0.078748	-0.005659	-0.014667	0.003337	0.009631	-0.02847
0.079503	-0.005308	-0.003706	0.001852	0.010142	-0.032732
0.079601	-0.010134	-0.005875	0.001094	0.003362	-0.036255
0.073948	-0.004699	-0.006109	-0.006938	0.001613	-0.038547
0.065739	-0.011501	-0.002025	-0.003342	0.002019	-0.038475
0.062064	-0.007385	-0.001819	0.00248	0.003096	-0.037738
0.057445	-0.006702	-0.00839	-0.001275	0.007811	-0.03218
0.067806	-0.008104	-0.003453	-0.000564	0.005932	-0.030087
0.069382	0.000918	0.005522	0.004423	0.001161	-0.024948
0.069959	0.006135	0.003544	0.014675	0.002214	-0.02696
0.064608	0.017346	0.007158	0.009515	0.001127	-0.024955
0.059857	0.024851	0.014415	0.010202	0.001479	-0.024219
0.059462	0.02756	0.010189	0.008301	-0.00113	-0.036547
0.066941	0.027661	0.004669	0.00733	-0.005779	-0.030643
0.063928	0.023476	0.001262	0.011535	-0.005316	-0.028946
0.054254	0.020913	0.011566	0.016401	-0.009156	-0.02577
0.042494	0.007818	0.014826	0.005383	-0.008668	-0.027345
0.048649	0.009251	0.017554	0.00509	-0.012485	-0.023453
0.053921	0.005429	0.018163	0.004786	-0.017022	-0.018868
0.057038	0.002416	0.009882	0.00684	-0.018644	-0.020837
0.056426	-0.002341	-0.000895	0.012484	-0.01658	-0.021316
0.056314	-0.008638	0.001777	0.016708	-0.018845	-0.023327
0.056337	-0.013246	-0.012584	0.014912	-0.022486	-0.018261
0.036871	-0.006117	-0.000544	0.017615	-0.019576	-0.018236
0.028811	0.00629	0.002173	0.011003	-0.016723	-0.022823
0.027602	0.015655	0.00169	0.004211	-0.01894	-0.020159
0.025593	0.015403	0.003219	0.001197	-0.016787	-0.02256
0.034067	-0.00532	0.009733	0.004627	-0.017527	-0.020473
0.040878	-0.032142	0.013479	0.005145	-0.021864	-0.0185
0.05057	-0.055443	-0.006932	0.004121	-0.015251	-0.01303
0.040156	-0.067172	-0.004193	0.001126	-0.017408	-0.015563
0.038326	-0.078771	-0.013745	-0.007692	-0.016628	-0.01761
0.030388	-0.057919	-0.015618	-0.009423	-0.016564	-0.011522
0.025411	-0.031449	-0.01357	0.00134	-0.020123	-0.010909
0.015493	-0.007141	-0.009406	0.00101	-0.016369	-0.003371
0.009513	0.008409	-0.006999	0.008319	-0.009787	-0.008754
0.016254	0.020687	-0.001828	0.003728	-0.005359	-0.004253
0.032066	0.002832	0.005638	0.009389	-0.006739	-0.002393
0.041295	-0.02641	0.003207	0.009219	-0.005894	-0.000712
0.052142	-0.050016	-0.013866	0.006171	0.00076	-0.000549
0.059401	-0.056575	-0.005528	0.006102	0.003037	-0.003182
0.072918	-0.040738	-0.008849	0.014123	0.000205	-0.009207
0.085907	-0.002349	-0.006355	0.011139	0.00536	-0.011187
0.104483	0.027359	-0.006833	0.014031	-0.000457	-0.013737
0.117818	0.05034	-0.003552	0.009651	-0.00268	-0.015751
0.127137	0.059833	0.008102	0.014559	0.005248	-0.00961
0.136875	0.054564	0.012421	0.019679	0.005834	-0.010036
0.146442	0.019952	0.0133	0.02455	0.002793	-0.000294
0.152747	-0.004876	0.009296	0.022502	-0.000321	-0.003804
0.154122	-0.022128	0.006579	0.029119	0.005276	-0.00422
0.162282	-0.022881	0.00566	0.019902	0.010094	-0.009496
0.164039	-0.010281	0.010672	0.009846	0.004725	-0.009707
0.165483	0.023182	0.018917	0.008552	0.001472	-0.009709
0.168418	0.059445	0.017861	0.010927	0.003996	-0.009675
0.169468	0.089719	0.029458	0.014126	0.005025	-0.012543
0.161326	0.093854	0.039785	0.016332	0.00681	-0.005254
0.137252	0.084723	0.033677	0.01517	0.009209	-0.007447
0.119738	0.076287	0.029717	0.008928	0.005771	-0.009759
0.101832	0.053034	0.02922	0.006947	0.000155	-0.008288
0.10132	0.033722	0.029863	0.002042	-0.001841	-0.006161
0.093534	0.023489	0.028943	0.003153	-0.00313	-0.011858
0.090336	0.031016	0.023429	0.004022	1.7e-05	-0.0082
0.089474	0.054454	0.028447	0.004396	0.003863	-0.013967
0.09163	0.081217	0.047139	0.005273	0.003382	-0.011683
0.095686	0.111167	0.043512	-0.000452	0.009433	-0.007375
0.102823	0.137581	0.046255	-0.00082	-0.002041	-0.013678
0.098218	0.131864	0.042637	0.003566	0.000374	-0.00755
0.091799	0.11533	0.028355	0.008297	0.001302	-0.01519
0.092756	0.075822	0.022331	0.004076	0.004469	-0.015067
0.086302	0.032868	0.005693	0.006428	0.007597	-0.015478
0.091474	0.002167	-0.011074	0.005146	0.004157	-0.015936
0.093593	-0.007943	-0.018445	0.006032	0.002874	-0.015595
0.093488	0.004181	-0.026791	-0.005978	-0.001374	-0.022817
0.087531	0.040666	-0.025853	-0.004573	-0.011373	-0.013752
0.07973	0.073114	-0.022938	0.003487	-0.005389	-0.008916
0.069214	0.086267	-0.026227	0.005154	-0.006672	-0.010746
0.057546	0.087846	-0.029052	0.007442	0.004436	-0.008278
0.029835	0.05691	-0.035674	0.017733	0.00683	-0.006286
0.022732	0.040934	-0.04414	0.012055	0.004081	-0.006047
0.012342	0.012395	-0.048816	0.012189	-0.000861	-0.005625
0.01609	0.000746	-0.060487	0.011133	-0.007297	-0.015393
0.013946	-0.004767	-0.063455	0.00626	-0.011522	-0.018031
0.00879	-0.009099	-0.05556	0.003613	-0.009208	-0.021434
-0.011313	-0.000254	-0.052015	0.00171	-0.008393	-0.023452
-0.023807	0.017852	-0.051488	-0.002386	-0.008347	-0.023414
-0.028952	0.03591	-0.054267	-0.006498	-0.004003	-0.021234
-0.028684	0.032835	-0.053575	-0.00335	-0.006265	-0.016709
-0.034793	0.009857	-0.056282	-2e-06	-0.012962	-0.018724
-0.031872	-0.025381	-0.065644	-0.001636	-0.015331	-0.02453
-0.043165	-0.054752	-0.060699	0.003903	-0.017673	-0.025856
-0.050158	-0.037006	-0.057106	0.002199	-0.019308	-0.027429
-0.046812	0.02577	-0.058136	-0.000899	-0.023904	-0.029816
-0.039641	0.089034	-0.057687	0.002418	-0.027035	-0.02696
-0.015873	0.123956	-0.059165	0.004571	-0.032435	-0.033631
0.00328	0.123844	-0.054321	0.011544	-0.033449	-0.028647
0.009251	0.101268	-0.046308	0.008539	-0.038893	-0.030489
-0.003851	0.06136	-0.052454	0.006164	-0.038471	-0.02807
-0.021431	0.004865	-0.034978	0.009588	-0.036602	-0.023429
-0.047547	-0.018715	-0.033531	0.009601	-0.041291	-0.027594
-0.058936	1.9e-05	-0.02485	0.008039	-0.043072	-0.026067
-0.065592	0.050054	-0.036819	0.008165	-0.050718	-0.033874
-0.075166	0.096005	-0.036591	0.005135	-0.05101	-0.032409
-0.065391	0.097046	-0.039658	0.01447	-0.047614	-0.031394
-0.064052	0.089358	-0.050598	0.01207	-0.047042	-0.027795
-0.068882	0.087677	-0.052872	0.013999	-0.044245	-0.02338
-0.077291	0.074339	-0.059043	0.014583	-0.049398	-0.024758
-0.080397	0.032656	-0.067265	0.009948	-0.045741	-0.023329
-0.094058	-0.004714	-0.060409	0.004516	-0.040485	-0.021911
-0.120282	-0.024063	-0.048482	0.006169	-0.033628	-0.015903
-0.137016	-0.017395	-0.047297	0.004847	-0.03242	-0.011321
-0.136515	0.005171	-0.05133	0.002816	-0.026748	-0.010992
-0.132057	0.031481	-0.055042	0.006497	-0.024609	-0.010315
-0.123392	0.066468	-0.057221	0.007755	-0.023769	-0.004456
-0.121621	0.089247	-0.057279	0.012723	-0.024993	-0.004926
-0.120267	0.092398	-0.059448	0.010309	-0.023122	-0.006174
-0.119805	0.061339	-0.057465	0.00113	-0.013808	-0.004483
-0.121353	0.017993	-0.057185	0.002092	-0.016002	-0.00456
-0.134825	-0.011027	-0.047152	0.002876	-0.012988	-0.000913
-0.132233	-0.022572	-0.043961	0.006704	-0.008444	-0.005107
-0.120742	-0.010376	-0.046792	0.00718	0.001382	0.004458
-0.094672	0.013056	-0.054296	-0.000973	0.006887	0.008075
-0.077529	0.033636	-0.063905	-0.005427	0.008066	0.007515
-0.06759	0.051287	-0.062253	-0.008558	0.012255	0.009921
-0.061723	0.057396	-0.060126	-0.008116	0.011418	0.013199
-0.050394	0.054478	-0.064333	-0.00768	0.008441	0.015086
-0.043459	0.037797	-0.069713	-0.010932	0.012066	0.017595
-0.04834	0.021163	-0.066021	-0.009824	0.017918	0.01947
-0.061995	0.0109	-0.07156	-0.015895	0.025229	0.01614
-0.061674	-0.011598	-0.058258	-0.009733	0.029656	0.016836
-0.064145	-0.014667	-0.049617	-0.016829	0.033379	0.023032
-0.056273	0.006048	-0.045356	-0.019387	0.031971	0.022142
-0.048489	0.037398	-0.044568	-0.021802	0.037045	0.016838
-0.042514	0.061855	-0.036733	-0.015664	0.037049	0.018301
-0.030236	0.06807	-0.033767	-0.018218	0.035534	0.020195
-0.019853	0.072823	-0.032693	-0.023947	0.039711	0.006636
-0.017276	0.066124	-0.036345	-0.022697	0.040216	0.007657
-0.021219	0.041139	-0.031724	-0.027853	0.036997	0.00689
-0.013028	0.021701	-0.024164	-0.026403	0.038003	0.007636
-0.007273	0.010304	-0.028578	-0.015375	0.038893	0.007753
0.003146	0.007151	-0.034288	-0.011622	0.043355	0.011823
0.012952	0.009687	-0.025438	-0.007556	0.046182	0.007823
0.017338	0.017545	-0.030182	-0.008563	0.041611	0.007223
0.017472	0.027832	-0.01854	-0.008095	0.036946	0.009431
0.022485	0.00291	-0.011531	-0.009515	0.040152	0.004153
0.030562	-0.039651	0.003229	-0.01465	0.038941	0.004501
0.036517	-0.071498	0.012419	-0.015399	0.041276	0.007039
0.039211	-0.073338	0.015552	-0.011609	0.047856	0.005287
0.04117	-0.058789	0.007987	-0.010656	0.052161	0.002713
0.039617	-0.046222	0.019429	-0.012021	0.051317	0.006651
0.027812	-0.058319	0.041703	-0.009126	0.046769	0.014472
0.026947	-0.068285	0.054816	-0.009051	0.046523	0.01798
0.035434	-0.047205	0.044744	-0.005197	0.044048	0.015841
0.040947	-0.023761	0.026897	-0.014286	0.042948	0.007644
0.027648	-0.009014	0.037593	-0.017583	0.03306	0.001129
0.020794	0.002319	0.039851	-0.018171	0.02171	0.004056
0.020912	-0.002873	0.036938	-0.015682	0.013214	0.00192
0.025507	0.000385	0.023217	-0.011786	0.008359	0.00264
0.024307	-0.016294	0.021684	-0.004792	0.010738	-0.003156
0.015524	-0.031836	0.024803	0.000469	0.010945	0.003285
0.010995	-0.035885	0.020295	0.009605	0.005287	0.001787
0.009061	-0.032533	0.024073	0.010909	0.007591	-0.005092
0.010016	-0.014991	-0.002474	0.007613	-0.001731	-0.001257
0.006537	0.008778	0.004287	0.005522	-0.00463	-0.01348
0.003742	0.022105	0.00565	-0.003902	-0.014869	-0.020877
-0.00113	0.022102	-0.004603	-0.003151	-0.015721	-0.025233
0.003489	0.012508	-0.004011	-0.004092	-0.019471	-0.018153
0.006214	-0.000119	-0.02121	0.003372	-0.01678	-0.024072
0.003015	-0.014485	-0.011452	0.001787	-0.016223	-0.016524
0.002255	-0.02089	-0.003843	0.006168	-0.008447	-0.013939
-0.009333	-0.030085	-0.001875	0.00903	-0.010858	-0.008477
-0.00748	-0.030112	-0.010049	0.009937	-0.013293	-0.012474
-0.004829	-0.021896	-0.007694	0.002738	-0.01857	-0.01376
0.006116	-0.010358	-0.029372	-0.003052	-0.017263	-0.014285
0.007819	-0.010549	-0.017234	-0.006884	-0.018789	-0.00746
0.011672	-0.017359	-0.007863	-0.005486	-0.014474	-0.007707
0.009666	-0.033581	-0.006338	0.002305	-0.007876	-0.004796
0.017346	-0.035306	-0.002327	0.004083	-0.007724	0.001793
0.010464	-0.021969	0.017554	0.011726	-0.012548	0.00219
0.010301	0.000345	0.016783	0.004612	-0.015039	0.006671
0.004192	0.021301	0.025395	0.00846	-0.016708	0.005754
0.008328	0.030817	0.008947	0.002287	-0.017563	-0.004769
0.00431	0.038337	0.010812	-0.002059	-0.020426	-0.004987
-0.004878	0.037728	0.005679	-0.007918	-0.021024	-0.005185
-0.013067	0.044283	0.000178	-0.003589	-0.017946	-0.007231
-0.019831	0.043577	0.002414	-0.00527	-0.021339	-0.004219
-0.021365	0.032417	-0.010653	0.001201	-0.015265	-0.008235
-0.020673	0.0141	-0.013682	0.000142	-0.014903	-0.004391
-0.015128	0.00555	-0.038696	-0.003721	-0.016694	-0.005679
-0.019098	-0.009966	-0.054657	-0.002779	-0.01983	0.002617
-0.017425	-0.031156	-0.047123	0.00572	-0.017847	-0.001247
-0.02993	-0.04301	-0.067803	0.008909	-0.006292	0.001951
-0.036876	-0.026493	-0.077792	0.002003	-0.005613	-9.4e-05
-0.054884	-0.009613	-0.071973	-0.000732	0.000928	0.004524
-0.065958	0.009038	-0.087937	-0.004093	0.003828	0.004796
-0.071413	0.007257	-0.093381	-0.008863	0.003818	0.002883
-0.068221	-0.007696	-0.082441	-0.010071	0.000163	0.003999
-0.064708	-0.023426	-0.078634	-0.017747	0.003753	0.002037
-0.058767	-0.029678	-0.068756	-0.015242	0.000795	0.001029
-0.062985	-0.02829	-0.037709	-0.016575	7.2e-05	0.007855
-0.068151	-0.010208	-0.011357	-0.017058	-0.00428	0.010292
-0.076348	-0.010134	0.029953	-0.011679	-0.005015	0.012089
-0.084052	-0.019174	0.043114	-0.01857	-0.004324	0.011306
-0.083307	-0.033014	0.048611	-0.009432	0.006531	0.01151
-0.073874	-0.036377	0.044533	-0.00091	0.007906	0.008064
-0.062196	-0.022707	0.020305	-0.003262	0.009258	0.004269
-0.054512	-0.00483	-0.006016	-0.006286	0.001102	-0.00028
-0.054389	0.01444	-0.04026	-0.004995	-0.004919	-0.000472
-0.047325	0.024558	-0.09542	0.00164	-0.000111	-0.007942
-0.041278	0.035553	-0.156978	0.010194	0.001082	-0.003147
-0.060332	0.043544	-0.176189	0.005138	-0.002895	-0.003903
-0.077154	0.044491	-0.193484	0.008194	0.006129	-0.005379
-0.096401	0.058645	-0.215317	0.00558	0.003411	-0.009279
-0.115497	0.080292	-0.220663	0.01971	0.002064	-0.010672
-0.119322	0.096501	-0.218485	0.008598	-0.002284	-0.018593
-0.115761	0.116062	-0.205875	0.011178	0.001314	-0.018336
-0.111787	0.114854	-0.193467	0.01029	0.001924	-0.021924
-0.096088	0.116629	-0.182225	0.007118	0.010506	-0.019198
-0.085013	0.109461	-0.1673	0.0107	0.01027	-0.022167
-0.07403	0.105002	-0.154205	0.00997	0.013588	-0.025984
-0.074029	0.101952	-0.159914	0.011318	0.007411	-0.024642
-0.076988	0.117359	-0.145416	0.011254	0.006286	-0.024784
-0.083954	0.124811	-0.136618	0.011955	0.010944	-0.025675
-0.084672	0.126273	-0.129648	0.020528	0.006881	-0.02193
-0.069833	0.114179	-0.116816	0.018499	0.013689	-0.032153
-0.03336	0.093769	-0.095126	0.01166	0.010386	-0.026417
-0.010725	0.084851	-0.082566	0.00491	0.012134	-0.024276
0.000978	0.088283	-0.071939	0.004609	0.014603	-0.018986
0.006406	0.085995	-0.053019	0.001571	0.014138	-0.022311
-0.004314	0.086589	-0.05205	0.001347	0.018758	-0.023263
0.00344	0.074441	-0.046052	0.003092	0.013263	-0.018859
0.010003	0.046207	-0.042359	0.00633	0.009945	-0.01856
0.033849	0.017712	-0.03304	0.010937	0.01176	-0.017357
0.055633	0.006781	-0.027278	0.003046	0.008545	-0.014103
0.066449	0.00508	-0.016397	0.009039	0.012598	-0.015404
0.054991	0.029425	-0.004147	0.004127	0.005763	-0.019
0.049349	0.05509	0.00214	-0.003112	0.00041	-0.018212
0.036365	0.075646	-0.001789	-0.00085	0.000138	-0.020012
0.031954	0.08783	-0.005454	0.009955	-0.00592	-0.01434
0.034048	0.09239	-0.010954	0.006265	-0.003947	-0.01128
0.026536	0.089722	-0.004573	0.004013	-0.004154	-0.007453
0.037264	0.06889	-0.011981	-0.001758	-0.010212	-0.007374
0.043602	0.035592	-0.023409	0.002598	-0.007542	-0.006224
0.041326	0.018709	-0.012663	0.002567	-0.012118	-0.005123
0.036722	0.029483	-0.022106	0.002627	-0.007956	-0.007703
0.023797	0.074172	-0.022151	0.004761	-0.009601	-0.005201
0.035347	0.109115	-0.020036	0.004817	-0.017087	-0.00571
0.047923	0.123506	-0.014741	0.002624	-0.015841	-0.002748
0.06097	0.1172	-0.005224	-0.000194	-0.013895	-0.002774
0.069776	0.104871	0.008417	0.002784	-0.011955	-0.000565
0.07811	0.085715	0.022661	0.01093	-0.011462	-0.000489
0.070937	0.070067	0.018277	0.012614	-0.004434	-0.003527
0.071385	0.055701	0.017111	0.00686	-0.005348	-0.001599
0.057953	0.025177	0.026959	0.004022	0.000275	0.000375
0.063709	-0.019468	0.019007	-0.006833	0.004463	0.002844
0.069313	-0.041892	0.01575	-0.002458	0.008667	0.006485
0.072724	-0.034087	0.009024	0.000549	0.013627	0.005751
0.06685	-0.021255	0.014335	-0.003978	0.011366	0.012978
0.057032	-0.002331	0.010036	-0.004928	0.00989	0.020402
0.058931	0.010701	0.009513	-0.001293	0.006923	0.017917
0.054537	0.026812	0.012631	-0.003526	-0.000343	0.016037
0.055371	0.027999	-0.000565	-0.003429	-0.009793	0.008389
0.049417	0.006777	-0.005481	0.000878	-0.015508	0.005208
0.043313	-0.043723	-0.031116	-0.002914	-0.012399	0.004643
0.029489	-0.077812	-0.054327	-0.005695	-0.002788	-0.004798
0.02163	-0.093046	-0.061535	0.002223	0.002437	-0.003878
0.013924	-0.083402	-0.04781	0.006565	0.009751	-0.00378
0.012144	-0.075768	-0.041521	0.002305	0.005347	-0.007497
0.011815	-0.074716	-0.034416	0.001821	0.005899	-0.014731
0.022699	-0.060181	-0.033217	-0.000265	0.006447	-0.014832
0.031175	-0.051582	-0.040131	-0.005336	0.015697	-0.01141
0.041405	-0.045049	-0.034974	-0.008958	0.018391	-0.007897
0.043892	-0.046268	-0.027951	-0.012655	0.020362	-0.00147
0.041134	-0.039836	-0.016323	-0.017838	0.02379	0.005681
0.038049	-0.003857	-0.014201	-0.009067	0.024973	0.006823
0.034841	0.032789	-0.0148	-0.009916	0.022555	0.012234
0.025422	0.05474	-0.004674	-0.010832	0.020195	0.017769
0.028248	0.060279	-0.007331	-0.015815	0.007658	0.009558
0.023127	0.065808	-0.010694	-0.023196	0.00827	0.007879
0.027979	0.061527	-0.007255	-0.029234	0.006762	0.009181
0.03024	0.040972	-0.002869	-0.030917	0.006021	0.009891
0.028506	0.05082	0.010691	-0.024093	0.009727	0.017413
0.026465	0.083589	0.017581	-0.025131	0.011284	0.017551
0.03812	0.102821	0.018241	-0.01697	0.015042	0.02674
0.045335	0.116955	0.021139	-0.020847	0.014403	0.021915
0.0467	0.126047	0.025539	-0.024255	0.006552	0.02656
0.052312	0.120417	0.030946	-0.026831	-0.003456	0.026843
0.05102	0.12259	0.025487	-0.022157	-0.00465	0.027226
0.050522	0.121635	0.023128	-0.020366	-0.005804	0.026052
0.049279	0.108792	0.030609	-0.011416	-0.004663	0.027926
0.052217	0.09654	0.018966	-0.005482	0.000198	0.032607
0.054728	0.089038	0.014092	-0.013235	0.004286	0.032565
0.062267	0.073463	0.021744	-0.011385	-0.000395	0.027693
0.065601	0.054923	0.021427	-0.00457	0.000761	0.028659
0.062699	0.053315	0.033952	-0.00179	-0.013435	0.019265
0.059979	0.045527	0.034318	-0.006427	-0.016702	0.017457
0.06047	0.036679	0.023924	-0.001426	-0.01422	0.012047
0.06239	0.020456	0.017995	0.007044	-0.005984	0.017397
0.064259	-0.002396	0.017957	0.011971	-0.000786	0.021888
0.057638	-0.019396	0.012683	0.014224	0.002759	0.019828
0.062699	-0.043786	0.008958	0.012303	-0.009783	0.011878
0.067889	-0.064332	0.001355	0.008436	-0.025893	-0.005667
0.063665	-0.069582	0.007703	0.00552	-0.025121	-0.002421
0.069132	-0.058545	0.018756	-0.005422	-0.022307	-0.021496
0.066065	-0.038193	0.019135	-0.007358	-0.025195	-0.022985
0.060853	-0.017356	0.008982	0.002165	-0.020647	-0.020536
0.057827	-0.030963	0.014215	0.008718	-0.012395	-0.016065
0.054785	-0.057132	0.011614	0.000256	-0.001355	-0.020002
0.060057	-0.074958	0.004685	-0.011961	0.006034	-0.018932
0.06895	-0.088233	0.001173	-0.006751	0.006842	-0.0166
0.068405	-0.089645	0.004302	0.004258	-0.001846	-0.013297
0.067237	-0.080008	0.003918	0.005069	-0.004704	-0.009569
0.061136	-0.054798	0.004291	0.011663	-0.011844	-0.006364
0.048354	-0.032395	0.011549	0.007518	-0.00515	-0.01141
0.045251	-0.010939	0.014526	0.009624	-0.009992	-0.006092
0.046497	-0.005482	0.012138	0.00401	-0.005394	-0.012592
0.052846	-0.01381	0.015307	0.0024	-0.002889	-0.006583
0.051892	-0.037591	0.013582	0.009121	-0.000437	-0.013398
0.044843	-0.04792	0.004954	0.012718	-0.002307	-0.012957
0.044567	-0.049667	0.006146	0.017763	-0.006367	-0.012444
0.036226	-0.024498	0.003771	0.02231	-0.004687	-0.019943
0.033709	-0.013044	0.005832	0.02386	-0.003026	-0.022526
0.031373	-0.005513	0.007284	0.021907	-0.006523	-0.028181
0.02845	-0.010875	0.001765	0.019869	-0.002784	-0.029521
0.030158	-0.018796	0.002239	0.022915	-0.000521	-0.029336
0.034933	-0.03038	-0.000238	0.021569	0.00458	-0.026395
0.03617	-0.043794	-0.005876	0.022547	0.007448	-0.028458
0.03459	-0.053557	-0.006894	0.018361	0.016816	-0.027693
0.027253	-0.054523	0.000258	0.018365	0.016702	-0.0195
0.021646	-0.047189	0.001231	0.008686	0.009904	-0.030337
0.016955	-0.037789	0.00066	0.010427	0.004573	-0.032847
0.010775	-0.035922	-0.00422	0.006261	0.003579	-0.031853
0.008192	-0.039608	-0.005303	0.007872	0.003313	-0.029241
0.013625	-0.047372	-0.006992	0.016578	0.008178	-0.021273
0.018221	-0.058659	0.005765	0.011636	0.014475	-0.021531
0.023936	-0.064216	-0.002788	0.018098	0.012759	-0.012674
0.029766	-0.059958	-0.003727	0.018427	0.0218	-0.020503
0.032716	-0.054493	-0.013089	0.00919	0.016221	-0.024715
0.020222	-0.050478	-0.011265	0.007036	0.005561	-0.022781
0.00978	-0.051524	-0.003716	0.005605	0.002934	-0.022232
0.011113	-0.046551	0.000237	-0.001826	-0.006876	-0.016673
0.01526	-0.043502	0.004303	-0.007114	0.000124	-0.011112
0.026599	-0.043332	-0.005258	-0.008611	-0.000154	-0.012618
0.03608	-0.048079	0.004728	-0.01335	0.000347	-0.002506
0.050041	-0.049286	-0.008037	-0.004787	-0.00281	-0.0014
0.050637	-0.04748	-0.003859	-0.00065	-0.010294	0.001091
0.048365	-0.039477	-0.007372	0.002114	-0.017805	-2.7e-05
0.038786	-0.029013	-0.008264	0.007729	-0.019447	0.001696
0.030342	-0.003458	-0.005708	0.006828	-0.021079	0.002476
0.031566	0.024347	-0.007356	0.00747	-0.014036	0.001049
0.032462	0.031249	-0.001346	0.005287	-0.019396	-0.001957
0.030324	0.019968	-0.00367	-0.004479	-0.015992	0.007806
0.034599	0.005298	0.000747	-0.003677	-0.022838	0.00401
0.03825	-0.00519	0.005817	0.004227	-0.021605	0.007503
0.034045	-0.009876	0.00195	0.007846	-0.021063	0.007906
0.029661	-0.01219	0.010261	0.005554	-0.016872	0.011773
0.025148	-0.013797	0.004609	0.011343	-0.015561	0.011537
0.021264	-0.000783	0.000179	0.005486	-0.02007	0.012395
0.021895	-0.002937	-0.002036	0.007649	-0.022389	0.01338
0.020103	0.000994	0.005714	-0.001827	-0.023918	0.013986
0.010191	0.00572	-0.000514	-0.006054	-0.021095	0.008864
0.005599	0.001029	0.015177	-0.011993	-0.014575	0.014475
-0.000277	0.012031	0.014053	-0.005332	-0.015349	0.010997
-0.005825	0.017063	0.017436	-0.001027	-0.005915	0.014645
-0.014735	0.016279	0.035472	0.001858	-0.004456	0.015453
-0.010686	0.003132	0.037893	-0.00314	-0.003023	0.011707
-0.014866	-0.009195	0.058481	0.01011	-0.005203	0.004841
-0.010379	-0.019607	0.058732	0.002015	-0.008075	0.006901
-0.005257	-0.01379	0.061651	0.001328	-0.004388	0.003988
-0.006273	-0.000469	0.057155	-0.000259	-0.005013	0.007574
0.000658	0.003578	0.060795	-0.001697	0.000859	0.006051
0.009208	0.001976	0.0623	-0.000966	-0.004881	0.004622
0.014818	0.018031	0.050466	0.003427	0.002444	0.002532
0.016396	0.038085	0.053079	0.006223	0.003222	0.006911
0.025054	0.062317	0.052903	-0.002261	0.008291	-0.002103
0.0276	0.089177	0.054447	0.004373	0.004616	-0.004156
0.039769	0.102122	0.05236	-0.004422	0.002417	-0.000107
0.04466	0.095622	0.05314	-0.005055	0.005255	-0.000998
0.054205	0.088479	0.048663	0.006053	0.006608	-0.005894
0.073434	0.083725	0.043968	-0.001916	0.00579	-0.004046
0.073776	0.073292	0.045341	-0.001845	0.002026	-0.002729
0.094251	0.07891	0.036977	0.007011	0.006931	-0.00266
0.105133	0.085314	0.035506	0.002931	0.005982	-0.008027
0.112317	0.098047	0.034496	0.0082	0.007214	-0.008809
0.111921	0.109067	0.036276	0.00696	0.015673	-0.009828
0.103574	0.098533	0.033141	0.007197	0.010269	-0.010775
0.091844	0.081019	0.027846	-0.001298	0.004868	-0.01193
0.086365	0.065343	0.02239	-0.000827	0.004491	-0.02158
0.072631	0.047834	0.024345	0.002872	0.004852	-0.014457
0.065952	0.055015	0.021889	-0.00491	0.007348	-0.012752
0.069802	0.069206	0.021081	-0.002306	0.006856	-0.01734
0.079096	0.089474	0.024217	-0.003324	0.004143	-0.022004
0.091618	0.110878	0.006859	0.000486	0.001471	-0.016388
0.083494	0.121726	0.01184	0.002871	0.00024	-0.012233
0.061209	0.091642	0.004572	0.003176	-0.001782	-0.01104
0.055314	0.05764	-0.004395	0.00376	-0.003168	-0.020655
0.051231	0.015786	-0.014962	0.003425	-0.003773	-0.023064
0.049384	-0.007055	-0.016797	0.006618	0.001458	-0.020394
0.053058	0.008012	-0.009336	0.006269	0.003055	-0.021455
0.057373	0.025489	-0.00434	0.005177	0.001011	-0.021799
0.061512	0.038158	-0.005786	0.003317	0.006992	-0.021428
0.065395	0.039157	-0.012742	0.002161	0.006364	-0.019518
0.070195	0.018485	-0.017908	0.005288	0.001395	-0.015919
0.07813	-0.02546	-0.025213	0.003355	-0.002786	-0.01532
0.081463	-0.041249	-0.041249	0.005139	-0.006962	-0.018909
0.0747	-0.039058	-0.041419	0.005297	-0.007443	-0.016059
0.070255	-0.029675	-0.036286	0.010027	-0.012281	-0.02179
0.053421	-0.030321	-0.032049	0.007319	-0.015588	-0.021938
0.034883	-0.058422	-0.038431	-0.001964	-0.013773	-0.020877
0.035376	-0.079082	-0.039669	-0.002486	-0.006874	-0.021051
0.030691	-0.095078	-0.044138	0.001329	-0.010873	-0.02034
0.025313	-0.099649	-0.061459	0.00071	-0.005368	-0.017606
0.030033	-0.088793	-0.060436	-0.004867	0.000818	-0.019379
0.019405	-0.074704	-0.059301	-0.002647	-0.003871	-0.013626
0.019988	-0.047197	-0.065842	0.00484	-0.004954	-0.014967
0.019669	-0.023618	-0.068275	0.016633	-0.003087	-0.01474
0.018428	-0.0041	-0.057795	0.017565	-0.004124	-0.017619
0.006134	0.001642	-0.056104	0.005448	-0.008086	-0.022941
-0.009735	0.003672	-0.047927	-0.003976	-0.009115	-0.020183
-0.016819	-0.005701	-0.052687	-0.011906	-0.013755	-0.018875
-0.027275	-0.004123	-0.05406	-0.012497	-0.00967	-0.019626
-0.034766	-0.00963	-0.051174	-0.008978	-0.011343	-0.010825
-0.044955	-0.017943	-0.058627	-0.010986	-0.00359	-0.013796
-0.048555	-0.028849	-0.053871	-0.022679	0.00204	-0.009655
-0.055526	-0.038454	-0.050176	-0.022079	-0.001024	-0.004327
-0.064939	-0.032224	-0.045487	-0.025207	-0.00475	0.002452
-0.072612	-0.02347	-0.043218	-0.022479	-0.000447	0.006516
-0.069232	-0.015447	-0.041	-0.019101	-0.001881	0.011418
-0.074541	-0.007326	-0.042572	-0.014917	-0.005427	0.011309
-0.084265	-0.002765	-0.044233	-0.013826	-0.005965	0.016924
-0.08022	-0.002864	-0.049448	-0.011952	-0.009382	0.019668
-0.077261	-0.009106	-0.038087	-0.014348	-0.010544	0.017879
-0.077015	-0.007765	-0.044526	-0.010839	-0.005874	0.012576
-0.081449	-0.014386	-0.041813	-0.01696	-0.008425	0.01424
-0.070558	-0.025197	-0.042833	-0.013607	-0.002937	0.016001
-0.065955	-0.025479	-0.040543	-0.013806	-0.006931	0.015463
-0.058096	-0.020706	-0.044917	-0.016242	-0.002192	0.018357
-0.053767	-0.012906	-0.043621	-0.01786	-0.008377	0.019701
-0.058169	-0.000191	-0.041699	-0.009149	-0.005137	0.016835
-0.06795	0.005808	-0.040508	-0.00344	-0.006925	0.018133
-0.070313	-0.009439	-0.035524	-0.000496	0.001441	0.015564
-0.067014	-0.022481	-0.03948	0.000913	0.006242	0.016472
-0.055955	-0.040296	-0.0422	0.002324	0.013171	0.019449
-0.049175	-0.048828	-0.046115	0.00254	0.011271	0.014373
-0.039844	-0.031521	-0.043295	0.005594	0.012266	0.01295
-0.038902	0.007138	-0.041679	0.002858	0.009585	0.011355
-0.042401	0.043326	-0.034948	0.000132	0.009785	0.010427
-0.046138	0.067907	-0.033062	-0.003888	0.012122	0.004316
-0.044648	0.070753	-0.035991	-0.008837	0.010129	0.006157
-0.047707	0.047041	-0.02665	-0.00789	0.012485	0.005222
-0.050218	0.023968	-0.021467	-0.005395	0.013373	0.0007
-0.037181	0.014174	-0.028364	-0.011711	0.016432	-0.000425
-0.018007	0.030942	-0.024964	-0.012288	0.014361	0.002263
-0.010448	0.052433	-0.021248	-0.006841	0.01445	-0.003565
-0.019255	0.095025	-0.016471	-0.008183	0.016739	-0.000788
-0.02511	0.131427	-0.02076	-0.002822	0.018978	-0.004302
-0.026353	0.141179	-0.017076	-0.009094	0.013928	-0.008742
-0.03038	0.118202	-0.023869	-0.01186	0.013243	-0.008676
-0.03202	0.088161	-0.016402	-0.00613	0.011191	-0.001078
-0.041885	0.058121	-0.005909	-0.006047	0.005474	-0.000813
-0.047403	0.064416	-0.012065	-0.004609	0.00634	0.002413
-0.046251	0.081265	-0.018407	-0.003821	0.007215	0.001346
-0.036669	0.083784	-0.021671	-0.000275	0.002342	0.004771
-0.03369	0.087442	-0.025033	-0.00256	-0.004662	0.006689
-0.038599	0.100176	-0.024862	0.004016	-0.00947	0.003024
-0.03509	0.096339	-0.020082	0.005325	-0.008393	0.005027
-0.030213	0.087001	-0.03139	0.006712	-0.013832	0.004085
-0.037067	0.054988	-0.028574	0.007477	-0.012746	0.000115
-0.044911	0.026494	-0.016306	0.005401	-0.012396	-0.006142
-0.044378	0.022063	-0.01713	0.012672	-0.01204	-0.007143
-0.041637	0.030039	-0.021482	0.007719	-0.008843	-0.012169
-0.034602	0.046665	-0.024178	0.006286	-0.009261	-0.012066
-0.025431	0.061029	-0.028635	0.002667	-0.000245	-0.010676
-0.022106	0.071655	-0.033305	0.007709	-0.009418	-0.00611
-0.020311	0.071899	-0.032887	0.007004	-0.007699	-0.003943
-0.013473	0.063116	-0.033974	0.005676	-0.009608	-0.00614
-0.012412	0.058846	-0.035582	0.004444	-0.00717	-0.011987
-0.01802	0.048281	-0.039121	0.003787	-0.014153	-0.011993
-0.019585	0.053885	-0.038846	0.008241	-0.005112	-0.012698
-0.013151	0.049956	-0.038009	0.014142	-0.008397	-0.014022
-0.009573	0.040351	-0.0338	0.012091	-0.005106	-0.018445
0.001698	0.033458	-0.03551	0.008579	-0.009836	-0.022164
0.009575	0.028045	-0.026411	0.009153	-0.004346	-0.015603
0.016355	0.026858	-0.014459	0.008728	-0.001859	-0.026449
0.02288	0.027606	-0.010423	0.010875	-0.000792	-0.02481
0.0269	0.033421	0.003109	0.007101	0.001012	-0.019662
0.022644	0.030365	-0.00344	0.013834	0.002028	-0.027243
0.02469	0.026383	-0.010408	0.010924	-0.003473	-0.028456
0.030656	0.016629	-0.013578	0.007151	-0.001655	-0.025325
0.027504	0.007963	-0.009512	0.002693	0.004497	-0.024323
0.021887	-0.00507	-0.019799	0.001803	0.00122	-0.021007
0.018783	-0.016372	-0.01992	0.002382	0.006662	-0.019049
0.013119	-0.02956	-0.017055	0.014579	0.007039	-0.017422
0.001946	-0.049063	-0.013947	0.011968	0.006751	-0.008038
0.0156	-0.044837	-0.003439	0.012608	0.00349	-0.012944
0.017886	-0.049032	-0.000749	0.012528	0.00389	-0.018607
0.020643	-0.053719	0.0015	0.002302	0.004286	-0.025976
0.024272	-0.037262	-0.008569	-0.002445	0.005446	-0.020123
0.02132	-0.036392	-0.012668	-0.000539	0.002982	-0.018475
0.023413	-0.048526	-0.005581	0.006183	0.009318	-0.006586
0.019133	-0.067192	-0.001042	0.003733	0.011226	-0.005767
0.020388	-0.082939	-0.001326	0.004016	0.019682	0.001026
0.019959	-0.08167	-0.001164	0.004464	0.024439	0.001377
0.016986	-0.06995	-0.010165	-5.2e-05	0.01532	-0.003359
0.010741	-0.032374	-0.003164	-0.000439	0.012802	3e-05
0.000139	-0.004905	-0.003414	-0.001219	0.006597	-0.008966
-0.005364	0.006387	0.001443	-0.011002	0.007705	-0.007347
-0.009038	0.015947	-0.000949	-0.013023	0.011759	0.004535
-0.009509	0.018886	-0.007732	-0.004684	0.023766	0.010121
-0.012211	0.006768	-0.007515	0.001737	0.022599	0.005607
-0.005359	-0.012728	-0.000189	0.000617	0.020006	0.011101
0.003767	-0.00782	-0.013668	-0.003305	0.020236	0.012956
0.00115	-0.006929	-0.012552	-0.003352	0.012413	0.006205
-0.003443	0.000673	-0.004111	-0.002133	0.003922	0.006701
-0.007137	0.008927	-0.000563	-0.005297	0.003415	0.009145
-0.00191	0.0156	-0.002591	-0.011369	0.002895	0.012868
-0.002575	0.012395	0.001374	-0.012968	0.007411	0.013733
-0.004333	0.010469	-0.018348	-0.003482	0.003871	0.009065
-0.001802	0.007146	-0.017476	-0.009536	0.006144	0.015558
-0.010088	0.006251	-0.005362	-0.005917	-0.003284	0.015033
0.00337	-0.01398	0.009218	-0.005907	-0.000359	0.014299
0.017057	-0.046696	-0.003179	-0.003031	0.000355	0.016499
0.025819	-0.068022	0.006121	-0.001432	0.001044	0.012775
0.0205	-0.063583	0.011256	-0.003509	0.002439	0.011791
0.019755	-0.051995	0.006735	-0.006342	-0.000563	0.012946
0.018858	-0.046719	0.012992	-0.006987	-0.002835	0.014126
0.026775	-0.048151	0.005525	-0.009174	-0.006547	0.018879
0.026682	-0.041129	0.023262	-0.009773	-0.005899	0.018547
0.023221	-0.026836	0.032343	-0.009575	-0.003087	0.016018
0.018537	-0.017017	0.022283	-0.003685	-0.006034	0.017986
0.021307	-0.016092	-0.004697	-0.000473	-0.006813	0.010453
0.018064	-0.016813	0.003276	-0.004968	-0.011117	0.018695
0.005426	-0.016649	0.012911	-0.001837	-0.009662	0.013346
0.002373	-0.023336	0.007772	-0.002497	-0.010315	0.01298
0.005815	-0.034209	0.015742	-0.011073	-0.011685	0.008783
0.020929	-0.017788	-0.003538	-0.002924	-0.012303	0.004975
0.027272	0.012898	0.00717	-0.005891	-0.002682	0.008127
0.013605	0.022799	0.015165	-0.006614	-0.010488	0.008475
0.007351	0.02216	0.005164	-0.001603	-0.008779	0.011125
0.005191	0.002673	0.005932	-0.009682	-0.004868	0.013401
0.005321	-0.013081	0.012534	-0.00526	-0.000958	0.010199
-0.000695	-0.008458	0.010086	-0.006836	-0.007884	0.012702
0.001431	0.004004	0.011303	-0.006123	0.00041	0.011607
0.000184	0.025123	0.000915	-0.005461	-0.005071	0.011324
0.003198	0.038958	-0.003408	-0.001869	-0.002518	0.009631
0.002303	0.041248	0.000428	0.003213	-0.003617	0.006557
2.4e-05	0.038213	-0.012736	0.004647	-0.006192	0.004801
-0.016393	0.028414	0.001839	0.008295	-0.013122	0.002323
-0.024582	0.024883	0.010189	0.002568	-0.00627	-0.001989
-0.022249	0.025925	-0.009552	0.004829	-0.005996	-0.003326
-0.010472	0.034912	-0.012058	0.004215	-0.002126	-0.004806
-0.013291	0.050584	-0.010393	0.008829	-0.001945	-0.010528
-0.019997	0.053078	-0.009767	0.009805	0.003243	-0.014225
-0.032708	0.040967	-0.018176	0.003978	0.000455	-0.007242
-0.044508	0.040495	-0.022289	0.008549	0.004846	-0.00727
-0.050429	0.049303	-0.018388	0.008806	0.007021	-0.008852
-0.044386	0.066002	-0.05055	0.015713	0.007729	-0.014597
-0.042474	0.079352	-0.040607	0.008578	0.006971	-0.011917
-0.044998	0.086693	-0.040409	0.005221	0.008347	-0.014877
-0.050542	0.090246	-0.038989	0.004634	0.008257	-0.012609
-0.056428	0.073303	-0.040714	0.012222	0.007414	-0.017346
-0.052091	0.063476	-0.026121	0.012458	0.009463	-0.019973
-0.052675	0.064343	-0.016976	0.008958	0.004938	-0.018953
-0.048818	0.059572	-0.028007	0.011403	0.008385	-0.022856
-0.05182	0.046142	-0.017955	0.012224	0.009654	-0.020227
-0.047743	0.044959	-0.049329	0.015277	0.010172	-0.019666
-0.049469	0.057714	-0.055839	0.017667	0.008475	-0.021941
-0.051504	0.057375	-0.050348	0.014889	0.011895	-0.022137
-0.052846	0.055387	-0.035326	0.017821	0.011662	-0.017786
-0.062202	0.040863	-0.030908	0.01285	0.012118	-0.017891
-0.069402	0.013141	-0.022567	0.01078	0.013289	-0.017878
-0.074886	-0.009697	-0.015021	0.010835	0.010078	-0.015573
-0.073982	-0.015352	-0.015815	0.010266	0.006078	-0.016865
-0.065237	-0.007514	-0.029259	0.00604	0.004263	-0.017522
-0.05137	0.016453	-0.082337	-0.005413	0.000241	-0.019804
-0.043622	0.025987	-0.122149	-0.006315	0.001324	-0.007318
-0.055876	0.024431	-0.136604	-0.004028	0.004557	-0.005657
-0.081801	0.025989	-0.148827	-0.003404	0.005632	0.00397
-0.095498	0.010686	-0.159447	-0.003989	0.011046	0.002774
-0.091366	-0.002691	-0.169649	0.005478	0.013563	0.005601
-0.084104	-0.015082	-0.167444	-0.003214	0.007346	0.006605
-0.078694	-0.017117	-0.162551	-0.010466	0.004065	0.006979
-0.069958	-0.010424	-0.155304	-0.013331	8.9e-05	0.006
-0.075188	0.005267	-0.149809	-0.012624	-0.00605	0.007309
-0.073673	0.021434	-0.146331	-0.011212	-0.004866	0.009266
-0.062761	0.023608	-0.140417	-0.002489	0.005029	0.010608
-0.050555	0.002499	-0.139359	0.003256	0.00401	0.015478
-0.050488	-0.01893	-0.137726	0.008579	0.00509	0.009427
-0.048478	-0.026403	-0.138583	0.010145	-0.002576	0.009066
-0.052471	-0.013891	-0.13995	0.003663	-0.011	0.012042
-0.0555	0.004676	-0.137307	0.00251	-0.012168	0.007012
-0.066285	0.032249	-0.135104	0.004058	-0.011115	0.010673
-0.066884	0.052392	-0.136604	0.00425	8.8e-05	0.011978
-0.061624	0.028867	-0.134136	0.004534	0.000347	0.010392
-0.036107	-0.009615	-0.12696	0.009081	0.010052	0.013898
-0.017634	-0.037907	-0.122202	0.007963	0.001519	0.012218
-0.011529	-0.017762	-0.111255	0.012755	0.000922	0.00778
-0.021932	0.022624	-0.098365	0.00589	-0.006959	0.003825
-0.024603	0.045458	-0.097313	-0.001737	-0.009038	0.001969
-0.023812	0.065302	-0.093593	-0.001306	-0.010403	-0.001198
-0.021849	0.072631	-0.097274	0.007781	-0.008101	-0.001971
-0.014327	0.071195	-0.089358	0.005269	-0.003628	-0.003822
0.000525	0.070358	-0.075597	0.008417	-0.003491	0.000303
0.024469	0.07649	-0.065274	0.007419	-0.004157	-0.003624
0.031876	0.082795	-0.055571	-0.001587	-0.004821	-0.00839
0.036675	0.097694	-0.041353	-0.001327	0.002544	-0.005694
0.039605	0.116712	-0.031258	0.008366	0.003398	-0.002716
0.045439	0.11948	-0.017711	0.016054	0.010039	-0.007681
0.048519	0.107285	-0.019589	0.019911	0.01016	-0.006758
0.054924	0.103619	-0.014704	0.016429	0.007356	-0.004426
0.065456	0.106211	-0.019843	0.016868	0.000124	-0.014157
0.06214	0.10031	-0.011053	0.017797	-0.005574	-0.015872
0.0657	0.091845	-0.004079	0.017276	-0.003976	-0.018357
0.076833	0.075008	0.000434	0.007847	-0.004533	-0.013834
0.087745	0.059392	-0.007971	0.008159	-0.002238	-0.019953
0.0968	0.055569	-0.007951	0.00826	0.002231	-0.01737
0.094593	0.063784	-0.013568	0.006229	-0.004945	-0.017618
0.086519	0.060632	-0.020844	0.005613	-0.004122	-0.016387
0.08457	0.07069	-0.019029	0.000739	-0.0026	-0.019579
0.090601	0.06742	-0.028089	0.005057	0.006982	-0.01311
0.087409	0.076131	-0.028133	0.002711	0.009338	-0.003781
0.087006	0.074584	-0.03045	-0.000921	0.01025	-0.002391
0.075243	0.088495	-0.028079	-0.008053	0.014043	-0.007511
0.073784	0.098357	-0.02335	-0.007991	0.001866	-0.010838
0.068722	0.097072	-0.021358	-0.01466	0.002105	-0.008497
0.070173	0.085243	-0.025084	-0.010482	0.001679	-0.005096
0.069411	0.072824	-0.017398	-0.011514	0.001326	0.001798
0.076279	0.070492	-0.013594	-0.015411	0.000975	0.006462
0.08345	0.075426	-0.024678	-0.01412	0.006455	0.006892
0.092724	0.090818	-0.022491	-0.020304	0.002556	0.013728
0.093358	0.08174	-0.009506	-0.014654	0.006641	0.012861
0.085147	0.054989	-0.000683	-0.006124	0.000585	0.012133
0.081949	0.04663	0.000124	-0.008506	-0.003247	0.011067
0.089853	0.052098	0.021027	-0.007905	-0.010696	0.007139
0.09633	0.089798	0.034752	-0.007952	-0.012316	0.000885
0.108105	0.123147	0.030831	-0.009802	-0.013861	0.009644
0.117248	0.121703	0.024139	-0.016496	-0.009626	0.010816
0.118105	0.090512	0.014697	-0.013143	-0.003173	0.017964
0.119233	0.055007	0.016191	-0.015402	0.001043	0.018366
0.107121	0.032138	0.009304	-0.021298	0.004523	0.019357
0.117216	0.014854	-0.005734	-0.025109	0.00369	0.023998
0.116227	-0.001125	-0.003065	-0.023642	0.00649	0.021476
0.114907	0.010872	0.007677	-0.024549	0.004307	0.024729
0.113839	0.033323	0.017985	-0.020094	0.000697	0.016513
0.120298	0.052091	0.009942	-0.015215	0.002308	0.017784
0.13003	0.042515	0.00493	-0.016151	0.006859	0.01818
0.138164	0.023472	-0.001646	-0.016941	0.009944	0.012109
0.133085	0.009955	-0.007285	-0.016284	0.011582	0.006092
0.131475	0.005524	-0.008359	-0.019376	0.011067	0.004326
0.118646	0.003878	-0.003439	-0.029606	0.010496	-0.001998
0.105799	0.012404	0.002627	-0.026463	0.007846	0.008701
0.112388	0.011532	0.007462	-0.009961	0.008861	0.00879
0.118197	0.012657	0.011455	0.000644	0.012143	0.010863
0.127471	0.007268	0.022633	-0.006941	0.019052	0.013172
0.138885	-0.009871	0.017044	-0.004214	0.019364	0.01073
0.144415	-0.015628	0.016028	-0.00373	0.016028	0.01046
0.150724	-0.0057	0.014474	-0.00459	0.001073	0.005802
0.14293	-0.002668	0.000225	-0.008252	0.002118	-0.002673
0.126137	-0.001492	-0.002638	-0.009148	0.00613	-0.005353
0.104895	0.001805	0.002397	-0.002737	0.013033	-0.007948
0.098251	-0.000681	0.00697	-0.001387	0.01048	-0.011406
0.10097	-0.015257	0.017599	-0.001594	0.012983	-0.009857
0.106577	-0.040438	0.016724	-0.014067	0.010329	-0.010834
0.114998	-0.072997	0.010723	-0.009167	0.011299	-0.007088
0.120827	-0.078795	0.001111	-0.00551	0.012219	-0.010677
0.116144	-0.076074	-0.000573	-0.005549	0.008787	-0.012167
0.099461	-0.076719	-0.00576	-0.0061	0.006755	-0.021645
0.079776	-0.074059	-0.006186	-0.007579	0.009049	-0.021772
0.068201	-0.070884	-0.012478	-0.010432	0.006936	-0.024121
0.063184	-0.058443	-0.0094	-0.007475	0.004819	-0.024953
0.060134	-0.055111	-0.001053	0.005514	0.003443	-0.01972
0.058497	-0.0595	0.00747	0.007623	0.007875	-0.016199
0.073577	-0.078342	-0.003384	0.01122	0.007144	-0.013296
0.077598	-0.095249	-0.017527	0.003268	0.007857	-0.014309
0.074797	-0.105821	-0.005451	0.006926	0.001291	-0.014235
0.072438	-0.096162	-0.004949	0.008517	-0.000198	-0.018595
0.063559	-0.076645	-0.012158	0.012308	-0.011109	-0.024314
0.057463	-0.048908	-0.005069	0.011709	-0.011094	-0.029448
0.048936	-0.037005	-0.012982	0.014637	-0.014682	-0.03016
0.04174	-0.027726	-0.00907	0.007469	-0.014695	-0.033337
0.040156	-0.030614	-0.002689	0.001044	-0.014746	-0.036496
0.036773	-0.057861	-0.000382	0.006793	-0.014075	-0.030702
0.034308	-0.082133	0.000264	0.009784	-0.014904	-0.03008
0.037222	-0.092045	0.009102	0.008386	-0.01137	-0.02816
0.03673	-0.090508	-0.000104	0.009686	-0.012872	-0.018867
0.038213	-0.083154	0.003285	0.014808	-0.011463	-0.017445
0.025155	-0.063567	0.004679	0.013497	-0.012239	-0.021215
0.017166	-0.042013	0.00313	0.0113	-0.013698	-0.019875
0.004464	-0.035376	-0.006198	0.006188	-0.014381	-0.019996
0.007517	-0.037906	0.013141	0.003315	-0.012151	-0.022265
0.011632	-0.045462	0.001317	0.000901	-0.014214	-0.015714
0.018539	-0.051401	0.003145	-0.002727	-0.011192	-0.020012
0.02634	-0.050236	0.00515	-0.00307	-0.007367	-0.011825
0.020435	-0.043472	0.002284	-0.001421	-0.004916	0.001596
0.016168	-0.011797	0.011393	0.000635	-0.011218	-0.002272
0.016601	0.005627	0.01642	-0.003224	-0.018179	-0.004732
0.014631	0.014361	0.01383	0.001453	-0.021407	-0.001159
0.023173	0.004803	0.008179	0.006832	-0.022358	0.002373
0.035915	0.000186	0.014934	0.010206	-0.024747	-0.000759
0.042093	-0.005919	0.005573	0.007763	-0.023472	-0.004096
0.053348	0.009315	0.005347	0.002279	-0.022924	-0.00173
0.057348	0.011948	0.012294	0.001175	-0.018039	0.001382
0.056156	0.028458	0.012548	0.004421	-0.016051	0.005979
0.066769	0.038131	0.012387	-0.000982	-0.012636	0.008132
0.065308	0.042607	0.008784	-0.000571	-0.011409	0.011127
0.077294	0.044401	0.007036	-0.003626	-0.010212	0.008173
0.072131	0.049191	0.003923	0.000512	-0.011163	0.008292
0.0615	0.061767	0.003258	0.004063	-0.007772	0.003949
0.052992	0.057399	0.011823	0.001769	-0.012386	0.00158
0.04493	0.047557	0.016378	0.003834	-0.013385	0.000694
0.038962	0.041149	0.023263	-0.000716	-0.009315	0.003894
0.029281	0.03762	0.02872	0.00063	-0.005999	0.005024
0.016794	0.046345	0.031989	0.004183	-0.002712	0.005499
-0.002536	0.058745	0.044843	0.011265	-0.000142	0.010411
-0.023881	0.059218	0.058175	0.01131	0.001645	0.007109
-0.035393	0.057446	0.062737	0.007832	0.002666	6e-05
-0.037406	0.04421	0.073846	0.006412	0.003678	-0.001841
-0.03907	0.032166	0.076581	0.005164	0.003178	-0.009561
-0.031642	0.031727	0.084598	0.005964	0.003378	-0.011404
-0.036013	0.019454	0.089801	0.008877	0.008626	-0.009586
-0.029678	0.027562	0.096527	0.004376	0.007306	-0.00209
-0.017586	0.030562	0.099285	0.011094	0.009523	-0.005884
-0.009745	0.037872	0.096578	0.018325	0.004502	-0.001642
0.001764	0.045532	0.092302	0.021984	0.005261	0.000333
0.015257	0.05077	0.086469	0.017913	-0.001313	-0.008686
0.024782	0.046334	0.079134	0.020991	-0.004203	-0.012522
0.029101	0.038106	0.065749	0.017721	-0.002066	-0.023104
0.02474	0.035122	0.061312	0.010436	0.003762	-0.019271
0.029802	0.019459	0.046454	0.007793	0.015283	-0.024761
0.035151	0.014166	0.037429	0.008484	0.018774	-0.017744
0.033411	0.006248	0.031315	0.0101	0.022171	-0.017892
0.043815	0.007536	0.018057	0.010105	0.016819	-0.012169
0.056578	0.009778	0.020096	0.01101	0.015016	-0.013549
0.061851	0.018379	0.01788	0.019101	0.010303	-0.011781
0.061508	0.023692	0.012391	0.019368	0.004848	-0.017446
0.071366	0.0102	0.003116	0.011643	0.00376	-0.023359
0.070697	-0.001243	-0.00461	0.013847	0.001242	-0.018871
0.074085	-0.017353	-0.01436	0.009033	0.000811	-0.023282
0.079423	-0.034867	-0.019841	0.008544	0.00251	-0.025387
0.072555	-0.033756	-0.021483	0.006571	0.007039	-0.02532
0.065624	-0.028141	-0.016073	0.010315	0.002814	-0.020704
0.07247	-0.019445	-0.020704	0.010467	0.005831	-0.017644
0.072932	-0.022447	-0.017944	0.00998	-0.000638	-0.018154
0.06262	-0.049996	-0.012985	0.007194	0.006711	-0.014375
0.05347	-0.058701	-0.022951	0.006071	-0.002661	-0.019212
0.070466	-0.062356	-0.02362	0.007684	-0.003265	-0.018154
0.070475	-0.063605	-0.013999	0.007927	-0.003879	-0.020736
0.062849	-0.037748	-0.01874	0.006456	-0.00156	-0.01387
0.056305	-0.013485	-0.022748	0.002378	-0.00509	-0.01936
0.060757	-0.006291	-0.020678	0.006057	-0.007112	-0.015923
0.054439	-0.025294	-0.024334	0.003022	-0.007622	-0.006844
0.052458	-0.047159	-0.029638	0.004635	-0.005283	-0.008529
0.055928	-0.046169	-0.026023	0.003259	-0.008747	-0.007361
0.060904	-0.04272	-0.018383	0.009858	-0.008515	-0.006006
0.059745	-0.016762	-0.025705	0.010095	-0.013377	-0.012075
0.058876	0.000285	-0.024956	0.007284	-0.020377	-0.013811
0.047279	-0.000144	-0.017607	0.004335	-0.013525	-0.00985
0.045708	-0.006355	-0.028264	0.002221	-0.014683	-0.009523
0.039317	-0.023915	-0.034026	0.007214	-0.017977	-0.002515
0.042387	-0.037942	-0.035237	0.011634	-0.012551	-0.002061
0.031324	-0.034256	-0.037324	0.013879	-0.012232	-0.000977
0.02425	-0.017788	-0.030451	0.012547	-0.018452	-0.002173
0.024869	0.000549	-0.042601	0.011979	-0.015934	-0.004845
0.015505	0.028345	-0.03456	0.008486	-0.016289	-0.006917
0.005337	0.043812	-0.032039	0.002825	-0.01374	-0.008421
-0.008791	0.03673	-0.037839	0.002314	-0.012648	-0.010644
-0.019877	0.006866	-0.031782	0.003995	-0.007189	-0.012864
-0.017753	-0.025872	-0.036838	-0.00164	-0.006108	-0.013761
-0.020315	-0.0446	-0.03754	-0.002892	-0.002138	-0.014588
-0.017875	-0.040018	-0.044849	-0.002153	-0.004665	-0.008778
-0.004828	-0.015017	-0.038301	-0.001134	-0.004316	-0.013192
-0.015163	0.031723	-0.038251	-0.004073	-0.003897	-0.006066
-0.02182	0.067896	-0.027056	-0.009715	-0.007091	-0.007716
-0.020559	0.075853	-0.031072	-0.006534	-0.000103	-0.013498
-0.026857	0.062088	-0.033193	-0.00706	-0.001065	-0.017853
-0.028499	0.018954	-0.036459	-0.009307	0.001681	-0.012807
-0.026893	-0.007765	-0.039491	-0.018671	0.006627	-0.015162
-0.009554	-0.013653	-0.043827	-0.026732	0.013068	-0.013041
-0.006565	-0.00674	-0.03365	-0.034266	0.013052	-0.005013
-0.016862	0.023297	-0.02701	-0.027198	0.013765	-0.000811
-0.020312	0.063208	-0.023339	-0.023174	0.014572	0.005624
-0.026991	0.082931	-0.024408	-0.022809	0.017629	0.009933
-0.035002	0.080483	-0.015003	-0.030549	0.012789	0.014926
-0.043728	0.049397	-0.014856	-0.023913	0.004463	0.023305
-0.040932	0.029098	-0.017914	-0.023761	0.004208	0.027182
-0.039673	0.023656	-0.017135	-0.019165	0.004044	0.026102
-0.035327	0.040141	-0.015392	-0.026388	0.001803	0.031192
-0.026714	0.055767	-0.020354	-0.012649	-0.001851	0.042523
-0.02315	0.08221	-0.022658	-0.016766	0.003919	0.042329
-0.019072	0.100127	-0.029184	-0.01955	0.009714	0.048549
-0.025579	0.108445	-0.027724	-0.024217	0.010345	0.046522
-0.033486	0.090403	-0.02909	-0.023707	0.009451	0.044455
-0.044072	0.061079	-0.022781	-0.016522	0.016453	0.040925
-0.036946	0.052033	-0.024239	-0.01872	0.013212	0.036373
-0.023593	0.038818	-0.026097	-0.015756	0.008484	0.030442
-0.022342	0.058184	-0.025277	-0.012034	0.0052	0.025109
-0.010498	0.068602	-0.023864	-0.016233	0.006955	0.018044
-0.019529	0.086964	-0.029259	-0.003774	0.001458	0.014962
-0.02062	0.097406	-0.034458	-0.008631	0.003206	0.007671
-0.027791	0.064373	-0.025732	-0.006985	0.001298	0.004734
-0.030627	0.031445	-0.028363	-0.00509	0.0073	-0.005588
-0.028881	0.021322	-0.020041	0.004394	0.008245	0.001627
-0.013002	0.020289	-0.028001	0.001772	0.012703	0.001177
0.002228	0.022521	-0.029152	0.009501	0.017018	-0.004047
0.011826	0.029289	-0.022602	0.004811	0.016205	-0.006668
0.013633	0.060331	-0.035802	0.004439	0.010248	-0.006935
0.006888	0.080761	-0.042783	0.003414	0.002817	-0.010113
0.009395	0.077418	-0.04719	0.005939	0.003397	-0.009619
0.006864	0.039354	-0.05239	0.005693	0.004691	-0.014315
-3.5e-05	0.006939	-0.058337	0.0082	0.010328	-0.013069
-0.00904	-0.010869	-0.059482	0.009377	0.010813	-0.016845
-0.01054	-0.006945	-0.049995	0.011781	0.010599	-0.013206
-0.006691	0.016929	-0.048753	0.013585	0.010335	-0.015274
-0.007203	0.050613	-0.043971	0.014615	0.003539	-0.01654
0.005025	0.065896	-0.033523	0.010688	0.002567	-0.02441
-0.000934	0.073085	-0.028308	0.008709	-0.009994	-0.023482
-0.002299	0.070157	-0.029271	0.008886	-0.001421	-0.022538
0.006111	0.064333	-0.026918	0.010638	-0.002297	-0.027274
0.012505	0.047999	-0.027229	0.0113	0.002709	-0.018932
0.014788	0.030849	-0.015782	0.005072	0.001072	-0.025886
0.014085	0.022072	-0.020218	0.008779	-0.004864	-0.024509
0.023974	0.02051	-0.007886	0.010508	-0.004304	-0.031814
0.022357	0.004758	0.002281	0.010648	-0.009521	-0.034086
0.030279	0.005713	0.001378	0.008498	-0.006701	-0.032792
0.034856	0.004212	0.009832	0.009981	-0.018407	-0.031381
0.032389	-0.011566	0.014126	0.008706	-0.015584	-0.035902
0.02542	-0.02361	0.01501	0.015086	-0.008315	-0.027203
0.02264	-0.034837	0.021369	0.013498	-0.003972	-0.020782
0.019168	-0.033526	0.027198	0.009249	-0.002565	-0.024543
0.032582	-0.018836	0.010798	0.009854	-0.001111	-0.020124
0.03099	-0.002858	0.00529	0.010364	-0.008328	-0.013438
0.026537	-0.007255	-0.011427	0.00253	-0.015561	-0.022891
0.021567	-0.015261	-0.019032	0.006096	-0.010369	-0.024059
0.023101	-0.041481	-0.015884	0.001562	-0.010942	-0.021821
0.025839	-0.066932	-0.023349	0.007162	-0.011488	-0.018541
0.031132	-0.084039	-0.016227	0.005395	-0.004022	-0.012504
0.033321	-0.100948	-0.039687	0.005071	-0.006015	-0.005693
0.02615	-0.10311	-0.028194	0.01028	-0.009528	-0.016122
0.013344	-0.096328	-0.020087	0.006368	-0.007855	-0.012283
0.005589	-0.065021	-0.023771	-0.002498	-0.017843	-0.013623
0.000158	-0.036592	-0.031824	0.000854	-0.019049	-0.00894
-0.002149	-0.039719	-0.013424	0.002127	-0.013721	-0.007324
-0.000533	-0.045869	-0.008636	-0.000211	-0.01275	-0.00655
0.005853	-0.0521	-0.018867	-0.004172	-0.005906	0.000652
0.008154	-0.044056	-0.013489	0.000857	-0.003504	-0.001335
0.016689	-0.025953	-0.019873	0.004192	-0.00178	0.005366
0.017204	-0.008327	-0.018479	0.003273	0.002844	0.007592
0.015246	-0.00445	-0.003913	-0.004064	-0.003441	0.003933
0.020202	-0.001806	-0.015083	-0.009961	-0.003141	0.000278
0.018644	-0.001172	-0.020416	-0.015105	-0.002122	-0.003434
0.020591	-0.007547	-0.004693	-0.012364	-0.004001	-0.001899
0.016935	-0.013978	0.00106	-0.013974	-0.008034	-0.001219
0.016851	-0.033669	0.001298	-0.0033	-0.00476	0.002634
0.025078	-0.045553	-0.004304	-0.002086	-0.004387	0.006931
0.034241	-0.044982	-0.00454	0.002882	-0.003308	0.006954
0.032703	-0.031124	-0.009119	0.000554	-0.006585	0.008212
0.024005	-0.00554	-0.009912	-0.01195	0.001039	0.00983
0.019032	0.023433	-0.013026	-0.009769	-0.001517	0.006051
0.013287	0.045891	-0.006427	-0.009866	-0.002581	0.00581
0.015327	0.046184	-0.002765	-0.008581	0.005835	0.008446
0.015237	0.040594	0.00446	-0.007913	0.004821	0.006023
0.013987	0.036154	-0.008207	-0.000699	0.008884	0.0031
0.015741	0.031649	-0.016981	-0.001644	0.005719	0.005791
0.011722	0.030214	-0.017084	-0.000223	0.006885	0.00196
0.020411	0.035563	-0.033682	0.001045	0.002225	0.004668
0.014108	0.026958	-0.020627	0.000284	0.004814	0.002155
0.007936	0.009436	-0.03213	0.004024	0.005922	-0.004663
0.007165	0.004192	-0.044557	-0.002594	0.008476	-0.003807
-0.001648	0.003728	-0.036438	0.001072	0.006578	-0.005562
-0.008725	0.006053	-0.042026	0.003276	0.008263	-0.005927
-0.004544	0.012404	-0.060977	0.001844	0.01209	-0.005667
-0.011554	0.006899	-0.052597	0.001794	0.010105	-0.002454
-0.020352	0.002689	-0.068893	-0.001096	0.014636	-0.00152
-0.030492	0.001604	-0.071641	0.004006	0.016261	-0.000357
-0.035498	-0.017007	-0.090278	0.004676	0.021511	0.002265
-0.045257	-0.019059	-0.084663	0.006373	0.016536	-0.007331
-0.054911	-0.028238	-0.084411	-0.00395	0.007961	-0.002649
-0.062047	-0.027807	-0.082524	-0.005991	0.006622	-0.009345
-0.068246	-0.017799	-0.073278	-0.009021	-0.003399	-0.00589
-0.070449	0.003665	-0.075433	-0.012064	-0.003228	-0.001774
-0.073209	0.034042	-0.063169	-0.010574	-0.003835	-0.003365
-0.075778	0.05611	-0.080834	-0.008592	-0.004411	0.004463
-0.086083	0.041397	-0.096868	-0.004992	0.00149	0.007199
-0.094881	0.022555	-0.100801	-0.006536	0.000873	0.011963
-0.101177	0.018307	-0.095803	-0.007837	-0.004898	0.008022
-0.105446	0.023819	-0.129746	-0.008694	-0.00479	0.014938
-0.080708	0.031934	-0.127859	-0.003414	-0.010555	0.010369
-0.059704	0.039964	-0.119544	0.00229	-0.016244	0.01805
-0.058182	0.047889	-0.138623	0.006256	-0.013253	0.008899
-0.073123	0.041014	-0.128597	-0.000247	-0.008765	0.011046
-0.084392	0.035476	-0.111429	-0.003662	-0.006492	0.007389
-0.080264	0.032287	-0.09858	-0.001326	-0.007099	0.006735
-0.070233	0.027167	-0.098833	-0.000517	-0.004066	0.008932
-0.062006	0.038471	-0.110359	0.004715	-0.00759	0.009075
-0.062174	0.047805	-0.08386	0.009198	-0.00312	0.009924
-0.074068	0.044505	-0.073779	0.010821	-9.5e-05	0.007858
-0.069848	0.032689	-0.06915	0.008812	-0.004328	0.005017
-0.064056	0.026594	-0.050984	0.007482	-0.001984	0.003623
-0.051355	0.019753	-0.071568	0.007805	-0.007673	-0.005657
-0.030927	0.029808	-0.113517	0.010082	0.000499	-0.006228
-0.025818	0.034275	-0.077808	0.005923	0.002833	-0.011288
-0.040412	0.027068	-0.063018	0.010344	0.000816	-0.010305
-0.05035	0.023131	-0.05562	0.012559	0.000255	-0.008638
-0.056913	-0.000239	-0.023801	0.017013	0.005471	-0.009065
-0.04513	-0.045083	-0.014736	0.010315	0.009992	-0.000334
-0.035494	-0.054981	-4.7e-05	0.012775	0.007123	-0.007951
-0.023791	-0.044209	-0.001238	0.013561	0.00938	-0.006941
-0.014063	0.002396	-0.033092	0.010859	0.004349	-0.012475
0.011046	0.062535	-0.130493	0.010991	0.008019	-0.014998
0.019978	0.109665	-0.154786	0.007208	0.00517	-0.006705
-0.003144	0.099646	-0.132812	0.006823	0.008722	-0.016436
-0.035952	0.056388	-0.121553	0.009829	0.006475	-0.016596
-0.050002	0.022769	-0.112509	0.013474	0.01149	-0.013119
-0.03822	-0.003147	-0.105951	0.014331	0.017199	-0.014071
-0.031193	0.001643	-0.073364	0.011415	0.014141	-0.009234
-0.023578	0.010468	-0.028748	0.010304	0.01607	-0.018052
0.00824	0.01923	0.000125	0.009569	0.014394	-0.01371
0.031002	0.039292	0.018504	0.008036	0.009785	-0.006434
0.045395	0.061042	0.008981	0.005985	0.02044	-0.00791
0.049392	0.074961	0.020702	-0.004125	0.018716	-0.007988
0.025079	0.078129	0.001761	-0.010639	0.016993	-0.007167
0.007209	0.074841	0.004685	-0.00981	0.014502	-0.008999
0.010965	0.042075	0.007479	-0.011397	0.004043	-0.002126
0.021741	0.014957	0.008371	-0.011295	-0.001366	-0.003955
0.039599	-0.00123	0.006259	-0.006898	0.001221	-0.002136
0.060273	0.006153	0.005768	0.003318	-0.00133	0.00058
0.057911	0.022991	0.00753	-0.000398	-0.008253	0.008018
0.04907	0.028973	-0.010477	0.001902	-0.004326	0.008991
0.035695	0.031634	-0.007654	0.0071	-0.013464	0.010738
0.016093	0.038599	-0.030577	0.000596	-0.013829	0.014975
0.011791	0.046375	-0.031087	0.002894	-0.006913	0.017147
0.0101	0.027983	-0.040284	-0.009959	-0.00435	0.014514
0.016187	0.028354	-0.057785	-0.006312	-0.003181	0.020975
0.012448	0.059019	-0.046043	-0.011131	-0.002036	0.017045
0.010867	0.074883	-0.047912	-0.004347	0.000603	0.013461
0.008079	0.0941	-0.058402	-0.010091	0.001826	0.015396
0.005242	0.11165	-0.054144	-0.007853	-0.003492	0.017609
0.005895	0.109045	-0.06328	-0.003486	-0.011668	0.02066
0.01595	0.100996	-0.065692	0.00042	-0.013304	0.01279
0.015678	0.094482	-0.048569	0.007715	-0.012661	0.013686
0.029146	0.07282	-0.047186	0.007822	-0.001819	0.011389
0.046565	0.066234	-0.050437	0.011566	-0.004766	0.009176
0.054565	0.073169	-0.031654	0.006322	-0.001282	-0.010016
0.042247	0.081853	-0.027142	-0.003823	0.003031	-0.008355
0.03221	0.090504	-0.033784	-0.002436	0.01532	-0.001375
0.02878	0.10287	-0.02825	0.003694	0.024589	-0.008709
0.031464	0.093366	-0.008733	0.004529	0.024378	-0.008082
0.046471	0.063412	-0.010482	0.001609	0.023419	-0.003116
0.063417	0.014994	0.000548	-0.00768	0.018803	-0.006187
0.08431	-0.025741	0.00944	-0.00697	0.019333	-0.003814
0.098303	-0.046774	0.003973	-0.006761	0.018413	-0.011542
0.091986	-0.053845	-0.00025	-0.010668	0.020516	-0.002601
0.086488	-0.044964	0.001192	-0.007744	0.019695	-0.006406
0.077264	-0.028083	0.006166	-0.009336	0.021832	-0.005884
0.081158	-0.007907	0.009146	-0.016172	0.017447	-0.000993
0.079111	0.007642	-0.002949	-0.015724	0.015257	0.002691
0.081119	0.017644	-0.011034	-0.010746	0.012335	-0.000728
0.068391	0.033145	-0.011572	-0.007516	0.010947	0.006008
0.058722	0.057161	-0.017302	-0.012155	0.010986	0.008131
0.045114	0.068006	-0.011199	-0.018227	0.00882	0.010186
0.033023	0.071931	-0.002548	-0.019187	0.005918	0.012307
0.039491	0.071909	-0.015114	-0.020167	0.006645	0.016488
0.038018	0.075505	-0.015284	-0.020297	0.003724	0.016968
0.038171	0.090603	-0.012679	-0.01183	0.006637	0.022727
0.029828	0.112283	-0.018967	-0.015507	0.002239	0.020185
0.024354	0.125208	-0.022263	-0.012762	-0.007218	0.022854
0.02267	0.128575	-0.027539	-0.012163	-0.010865	0.02467
0.024558	0.107551	-0.033718	-0.001846	-0.013796	0.017195
0.02582	0.077493	-0.039597	-0.004711	-0.010865	0.013606
0.016439	0.060482	-0.032448	0.001104	-0.012279	0.013041
0.010383	0.050871	-0.03822	0.002773	-0.005049	0.005734
0.015657	0.061228	-0.044112	-0.003628	-0.005104	0.001831
0.020925	0.072395	-0.050217	-0.009419	-0.000817	0.003022
0.024433	0.070028	-0.049185	-0.01661	0.002684	0.003414
0.019797	0.058464	-0.051975	-0.007952	0.007688	0.009302
0.008596	0.048765	-0.035367	0.002388	0.015621	0.005769
-0.002414	0.038114	-0.028924	0.005122	0.011304	0.013032
-0.000786	0.029712	-0.031733	0.005423	0.009093	0.001415
0.008972	0.031256	-0.028098	-0.005996	-0.011275	-0.008199
0.025134	0.0312	-0.041406	-0.014598	-0.022151	-0.014183
0.032088	0.026682	-0.042812	-0.020508	-0.026409	-0.010837
0.037916	0.014595	-0.04238	-0.016129	-0.024098	-0.01032
0.035146	0.021099	-0.027865	-0.00101	-0.007889	-0.003126
0.042483	0.011741	-0.027568	0.006805	0.003216	0.005358
0.051861	-0.00363	-0.011859	0.011199	0.014249	0.005139
0.056799	-0.021418	0.004619	0.017787	0.010669	0.003754
0.063295	-0.041175	0.005214	0.012109	-0.013263	-0.003547
0.074667	-0.073277	0.00069	0.013746	-0.025472	-0.013642
0.094084	-0.0961	-0.003615	0.013027	-0.020872	-0.017381
0.102698	-0.098844	-0.012503	0.017412	-0.020576	-0.021118
0.109016	-0.083391	-0.006397	0.02469	-0.013009	-0.023417
0.105919	-0.051393	0.000257	0.027004	-0.005533	-0.028807
0.09556	-0.0144	-0.00084	0.027783	-0.002526	-0.029127
0.09509	0.005898	0.010572	0.02716	-0.003977	-0.030177
0.09132	0.018475	0.006241	0.020733	-0.01053	-0.031388
0.100134	0.022523	0.015417	0.008623	-0.014167	-0.037226
0.118154	0.022201	0.010407	0.003042	-0.004695	-0.042243
0.132674	0.006445	0.004167	0.001436	0.004856	-0.032639
0.139559	-0.008903	-0.013268	0.004353	0.015819	-0.029398
0.105106	0.006314	-0.010574	0.0087	0.02097	-0.02735
0.090141	0.017528	-0.007156	0.012342	0.019562	-0.028671
0.091794	0.031231	0.002977	0.00558	0.017461	-0.024214
0.103222	0.019507	0.006373	0.004079	0.008086	-0.028155
0.110299	0.007381	0.002618	-0.007617	0.002366	-0.033682
0.109502	0.004798	-0.00136	-0.017386	-0.004725	-0.030418
0.117269	0.002231	-0.012791	-0.012632	-0.003778	-0.027461
0.109106	0.001122	-0.016755	-0.0074	0.000934	-0.017847
0.083185	-0.013591	-0.021263	-5.7e-05	0.008579	-0.007322
0.064104	-0.021298	-0.022635	-0.001347	0.016181	-0.001932
0.053561	-0.013518	-0.014993	-0.003443	0.013587	0.005089
0.053581	-0.011849	-0.011747	-0.008301	0.011699	0.006235
0.059652	-0.020642	-0.007768	-0.003241	-0.001719	0.01639
0.073525	-0.02476	-0.017023	-0.000682	-0.010756	0.009064
0.088972	-0.025841	-0.014964	-0.006331	-0.011709	0.008734
0.085931	-0.038936	-0.017611	-0.004789	-0.013343	0.012122
0.08003	-0.039646	-0.024297	0.001888	-0.007003	0.015501
0.075944	-0.043162	-0.024687	0.006582	-0.005803	0.013575
0.071813	-0.04304	-0.021714	0.002479	-0.013327	0.016347
0.073601	-0.036613	-0.013821	0.000858	-0.012955	0.010969
0.084797	-0.03421	-0.007401	0.001369	-0.002452	0.011194
0.095871	-0.034898	-0.003286	0.002727	-0.002933	0.00985
0.099981	-0.047282	-0.005077	0.000651	-0.005708	0.003917
0.091157	-0.07194	-0.017191	0.001461	-0.012182	0.001573
0.084859	-0.082395	-0.013011	-0.003599	-0.01648	0.003259
0.076063	-0.086658	-0.01145	-0.002009	-0.017898	0.004131
0.069355	-0.07383	-0.007503	0.002621	-0.001904	0.002648
0.074694	-0.059557	-0.00081	-5.1e-05	-0.000481	0.00383
0.074066	-0.040226	-0.004507	0.000263	0.003759	0.004284
0.089726	-0.029228	0.003598	-0.005232	0.002849	0.005327
0.098761	-0.006051	0.005769	0.001968	-0.000332	-0.005617
0.102667	0.007425	0.000904	0.005216	-0.00127	-0.00504
0.113164	0.009065	-0.004484	0.007204	0.00067	-0.012442
0.099222	0.010331	-0.009338	0.009931	0.001107	-0.020463
0.081841	0.006089	-0.006331	0.005875	0.001602	-0.019942
0.065786	0.006169	-0.012175	0.002667	0.004976	-0.024438
0.060682	0.019713	-0.015081	-0.000831	0.006199	-0.01801
0.07303	0.039552	0.002411	-0.000693	0.004533	-0.013503
0.074027	0.068434	0.009019	0.005234	0.001472	-0.01017
0.085655	0.092697	0.022153	0.013403	-0.001575	-0.010996
0.097195	0.076008	0.029003	0.006855	0.007798	-0.00707
0.089932	0.077027	0.034639	0.01216	0.004828	-0.013559
0.080709	0.068669	0.026331	0.011529	0.004801	-0.017193
0.070757	0.050848	0.024863	0.003673	-0.002488	-0.023821
0.06222	0.012344	0.032863	0.004295	-0.001706	-0.022198
0.058367	-0.001873	0.027252	-0.000362	0.004937	-0.014818
0.066164	-0.001774	0.024774	-0.001284	0.003544	-0.012259
0.063187	0.020311	0.034617	0.004941	0.006543	-0.005818
0.020183	0.061863	0.038277	0.003893	0.001566	-0.000899
-0.021777	0.070834	0.052409	0.009465	-0.003394	-8.8e-05
-0.054513	0.031955	0.056474	0.003331	-0.010488	0.002595
-0.054828	-0.009125	0.055244	0.000291	-0.018305	-0.00194
-0.03435	-0.037927	0.059998	0.005141	-0.015153	-0.001369
-0.025707	-0.045445	0.064185	-0.005992	-0.012704	-0.001296
-0.009957	-0.029737	0.068648	-0.011291	-0.011027	-0.000394
0.01547	-0.001268	0.070877	-0.005873	0.000828	0.008729
0.033632	0.033196	0.075613	-0.008991	-0.00193	0.011807
0.036656	0.041923	0.075547	0.003148	-0.001074	0.016013
0.041368	0.033206	0.070188	0.001696	-0.006067	0.01184
0.028782	0.009767	0.062862	0.011079	-0.011079	0.012218
0.027048	-0.003859	0.052603	0.004515	-0.012431	0.011296
0.031442	-0.024595	0.048653	0.0019	-0.015271	-0.000522
0.034641	-0.026672	0.04312	0.00322	-0.004972	0.00575
0.04676	-0.018083	0.043271	0.001842	-0.000577	0.005392
0.050186	-0.010979	0.04396	0.002692	0.001612	0.00431
0.049042	0.016749	0.043058	0.004176	0.010323	0.007572
0.034076	0.037195	0.050538	-0.000675	-0.003582	0.003473
0.017961	0.059633	0.050104	-0.001331	0.002171	0.006618
0.024937	0.052149	0.040194	0.004801	0.001318	0.001233
0.032087	0.028524	0.029626	0.001645	-0.010447	-0.01025
0.041288	0.009369	0.012855	0.002524	-0.005451	-0.008628
0.051672	-0.007266	0.018399	0.001921	-0.004808	-0.005626
0.051564	-0.004579	0.013819	0.006464	0.003055	-0.003953
0.059389	-0.001173	0.003992	0.004527	0.006539	-0.005296
0.052512	0.013589	-0.005496	0.005518	0.009973	-0.00722
0.024008	0.019393	-0.004258	0.010213	0.01049	-0.012585
0.00391	0.009456	-0.004898	0.013213	0.010304	-0.009222
0.00045	-0.004897	-0.008807	0.013521	-0.000783	-0.015957
0.01047	-0.034841	0.00133	0.016633	-0.002385	-0.01968
0.040239	-0.062299	0.003469	0.016589	-0.001037	-0.014054
0.063603	-0.069206	-0.010842	0.013895	0.005344	-0.018624
0.067037	-0.067839	-0.020775	0.012577	0.008089	-0.020219
0.063135	-0.055509	-0.030671	0.008216	0.010131	-0.016811
0.044545	-0.039498	-0.033883	0.019371	0.016435	-0.022348
0.019454	-0.021904	-0.035887	0.011454	0.009618	-0.021732
-0.001849	-0.001803	-0.026171	0.015243	0.004962	-0.024363
-0.017802	-0.013142	-0.015775	0.017645	-0.001194	-0.029179
-0.022756	-0.020417	-0.008604	0.009565	-4.1e-05	-0.022665
-0.01367	-0.050548	-0.02264	0.01389	-0.00106	-0.017979
0.003088	-0.067915	-0.017426	0.016097	0.005889	-0.016205
0.027804	-0.079367	-0.018053	0.01254	0.005566	-0.018067
0.037548	-0.063197	-0.027239	0.01242	0.001593	-0.012472
0.047477	-0.024642	-0.031723	0.008005	0.00126	-0.010563
0.018744	0.015653	-0.028599	0.008196	-0.004206	-0.01794
-0.011276	0.061069	-0.016227	0.008182	-0.000173	-0.0174
-0.018758	0.088096	-0.000718	0.011222	0.001632	-0.022526
-0.016175	0.083047	-0.003476	0.014119	0.001957	-0.021139
-0.003931	0.037959	-0.002223	0.01478	0.002255	-0.017585
0.004589	-0.014724	-0.011823	0.008077	0.001827	-0.010582
