LArm_acc_X	LArm_acc_Y	LArm_acc_Z	RArm_acc_X	RArm_acc_Y	RArm_acc_Z
0.001776	0.006007	0.006831	0.002794	-0.004993	0.009044
0.001872	0.006606	0.001065	0.003013	0.003719	0.002412
-0.001064	0.004532	-0.000408	0.003701	0.001482	0.0068
0.001912	0.008962	-0.001212	0.001488	-0.002957	0.010429
0.007799	0.015574	0.001599	0.001718	-0.003841	0.00612
0.005652	0.020777	0.005862	-0.001732	-0.003293	0.004623
0.001235	0.015607	0.000105	-0.005256	-0.003425	0.005985
0.002706	0.014626	0.002415	-0.002285	-0.007875	0.00965
0.000452	0.007798	0.006267	0.000173	-0.010126	0.005235
-0.003164	0.003833	0.005004	-0.001894	-0.005024	0.007139
-0.00376	0.004989	0.004427	0.000453	-0.004975	0.006233
-0.008022	0.00414	0.006745	0.000774	-0.001319	-0.000545
-0.006494	-0.001189	0.002597	0.002878	0.000229	0.007259
-0.00559	0.000121	0.001268	0.002402	0.000237	0.001278
-0.003126	0.010232	0.00638	0.00312	0.004644	0.004777
-0.005222	0.005848	0.005077	0.001837	-0.001904	0.001732
-0.001374	0.008619	0.006668	-0.002319	-0.0048	-0.002873
-0.004859	0.007037	0.003914	-0.005279	-0.003233	0.001917
0.004031	0.005193	0.003462	0.002093	-0.002363	0.001094
-0.002339	0.002846	-0.003645	0.004286	0.005044	0.004477
-0.004485	-0.002343	0.001649	0.006587	0.005835	0.003601
-0.000687	-0.005525	-0.003939	0.003695	0.010234	0.006279
0.003847	-0.005707	-0.002296	0.003917	0.002912	0.001152
-0.003258	-0.004225	-0.000768	-0.002493	0.005046	0.000175
0.001966	-0.008095	-0.001978	-0.003805	0.003554	-0.001391
-0.005769	-0.000762	0.000205	-0.000843	0.000705	-0.000739
-0.00785	-0.002304	0.001064	0.002016	0.00737	0.003464
-0.0055	-0.001722	0.000479	-0.000902	0.008922	0.0061
-0.003819	0.00181	0.00205	0.005777	0.016204	0.003245
0.001329	-0.001285	0.003684	0.002873	0.013981	0.005347
0.003656	0.000814	0.001565	-0.000746	0.01315	0.007492
-0.00282	0.000926	0.002301	-0.00057	0.005017	0.00324
-0.000514	0.003064	0.00162	-0.00631	0.004151	0.002473
0.003893	0.000825	0.001722	-0.000537	0.0048	0.007017
-0.002522	-0.000482	0.000322	0.005407	0.007602	0.003609
0.002108	0.008182	-0.001134	0.000387	0.008215	0.002126
-0.002293	0.002462	-0.001797	-0.003116	0.003006	-0.001491
-0.001622	-0.00406	-0.000963	0.000499	-0.002894	0.000165
-0.002186	0.000328	-0.003156	0.000586	-0.002237	-0.002678
-0.002114	0.001871	0.00342	0.005743	0.002079	-0.004701
-0.007046	0.007069	0.004836	0.00413	0.00422	0.001859
-0.003978	0.007698	0.004962	0.004217	0.00121	-0.002347
0.001317	0.011196	0.002871	0.003399	0.000389	0.000693
0.008711	0.011096	0.000797	0.001869	0.001754	0.002977
0.008941	0.019897	-0.002198	0.004111	-0.000556	0.000302
0.009064	0.025057	-0.006645	-0.000464	-0.003516	0.007589
0.011227	0.025059	-0.003727	-0.001238	0.000798	0.007673
0.014239	0.027697	-0.005096	0.00038	0.002162	0.001264
0.009059	0.023059	0.003812	-0.00328	-0.000777	0.002662
0.003169	0.014532	0.002644	-0.008338	0.001383	0.001807
0.001594	0.002211	0.003045	-0.009042	-7.4e-05	0.00177
0.002927	-0.010222	0.000556	-0.006212	0.003572	0.006864
-0.001613	-0.019442	0.003717	-0.0053	0.007145	0.00249
0.000419	-0.028647	0.002504	-0.000978	0.000566	0.005545
-0.004725	-0.027303	0.011251	-0.000874	0.004831	0.002705
-0.011944	-0.025986	0.004701	-0.002387	0.001136	0.006362
-0.007611	-0.029057	0.003339	0.003604	0.000328	0.001461
-0.009114	-0.026765	0.009077	0.001493	0.000996	-0.000726
-0.008385	-0.023801	0.009728	-9.6e-05	-0.001189	0.005065
-0.009142	-0.024469	0.007509	0.003035	0.000972	-0.002176
-0.009228	-0.024346	0.01034	-0.002218	0.005367	0.004197
-0.006919	-0.014055	0.011628	0.002819	0.008271	0.005802
-0.007577	-0.006695	0.011483	0.002869	0.006028	0.001584
-0.00621	-0.00734	0.01288	-0.001778	0.003858	0.009578
-0.002522	-0.00302	0.006978	-0.003027	0.004522	-0.001233
-0.001832	-0.001521	0.00471	-0.01996	0.003105	0.004198
-0.006172	0.003716	0.000167	-0.031672	-0.001974	0.006821
-0.004778	0.005246	-0.004321	-0.039796	-0.004795	0.013026
-0.010763	0.005535	-0.001604	-0.040461	-0.018477	0.014928
-0.009949	0.013551	-0.003927	-0.030326	-0.012467	0.0171
-0.00995	0.014934	-0.001741	-0.026739	0.005896	0.013421
-0.016489	0.014905	0.006318	-0.033991	0.009606	0.006031
-0.01255	0.021095	0.006494	-0.060349	-0.017296	0.006356
-0.011766	0.014265	0.009699	-0.08949	-0.048457	0.002801
-0.007201	0.013173	0.007777	-0.111687	-0.042086	0.009035
-0.008953	0.02311	0.004983	-0.117535	0.002674	0.030842
-0.000839	0.013992	0.004659	-0.118349	0.053627	0.055168
0.007438	0.012101	-0.004492	-0.105859	0.091473	0.069727
0.000379	0.012843	-0.004379	-0.094889	0.110252	0.079633
0.000622	0.01496	-0.004244	-0.09255	0.100304	0.079863
0.001653	0.019968	-0.002664	-0.0921	0.091413	0.070302
-0.002479	0.016921	-0.006067	-0.103966	0.069362	0.061919
0.002184	0.018773	-0.002145	-0.093296	0.065562	0.063165
0.003112	0.012611	-0.004699	-0.078364	0.059382	0.053422
0.003455	0.014452	-0.008071	-0.074972	0.061102	0.052569
0.005161	0.01261	-0.013603	-0.091537	0.070795	0.077775
0.001795	0.015993	-0.010501	-0.136549	0.065685	0.09337
-0.001752	0.009899	-0.002909	-0.152393	0.058217	0.08633
-0.008111	0.004412	-0.004752	-0.138059	0.05356	0.090331
-0.006496	-0.002632	0.000784	-0.123541	0.052253	0.09214
-0.00394	-0.001661	0.000422	-0.133239	0.061015	0.092064
-0.004364	-0.00269	-0.0	-0.136682	0.065747	0.072086
-0.000383	-0.001546	-0.005558	-0.124256	0.068761	0.0798
-0.001563	0.002039	-0.000321	-0.109768	0.064138	0.083667
0.006048	0.007652	0.003507	-0.110443	0.064826	0.076026
0.002554	0.00329	0.005157	-0.116328	0.053364	0.066631
0.002126	0.005344	0.002416	-0.128946	0.037151	0.053185
0.008845	0.002275	0.006313	-0.136151	0.02073	0.040934
0.008265	-0.002184	0.00434	-0.120471	0.006476	0.025757
0.004815	-0.002953	-0.001369	-0.104036	-0.000293	0.019117
0.007824	-0.007406	-0.006298	-0.086719	0.00475	0.015195
0.011575	-0.006661	-0.006971	-0.05887	0.025063	0.00781
0.01082	-0.0079	-0.001902	-0.040815	0.044425	-0.000496
0.005112	-0.001749	0.002321	-0.033114	0.048794	-0.015303
0.00653	-0.005171	0.00524	-0.038389	0.044	-0.019965
0.013881	-0.002133	0.008125	-0.040968	0.040952	-0.02956
0.010368	0.006172	0.009392	-0.049853	0.025914	-0.037719
0.005236	0.003504	0.000563	-0.065343	0.007112	-0.039492
0.007467	0.005888	-0.004637	-0.067602	0.01	-0.047413
-0.004332	0.002152	-0.001201	-0.055127	0.025275	-0.039554
0.00085	0.007526	0.000128	-0.038993	0.050566	-0.037836
-0.001397	0.00428	0.000772	-0.027195	0.059583	-0.042916
-0.006362	0.010483	0.003525	-0.030146	0.069022	-0.046279
-0.001829	0.015718	0.003484	-0.03271	0.063632	-0.043103
-0.001829	0.012311	0.004224	-0.061765	0.055661	-0.062486
-0.001012	0.010361	0.003527	-0.076799	0.048391	-0.072358
-0.001612	0.012119	0.007873	-0.071245	0.038336	-0.077662
0.000891	0.018082	0.00352	-0.053802	0.041562	-0.082251
-0.000497	0.012531	0.003606	-0.02736	0.037739	-0.089581
0.005445	0.008292	0.003019	-0.012405	0.03561	-0.096355
0.004323	0.015813	0.002995	-0.011768	0.037985	-0.102627
0.001563	0.010979	0.003121	-0.02423	0.026633	-0.09661
-0.001899	0.007662	0.009064	-0.03541	0.037084	-0.09838
0.001515	0.017183	0.011364	-0.020578	0.046869	-0.108675
0.002659	0.017179	0.010907	-0.009192	0.040853	-0.115699
0.003819	0.015683	0.006844	0.00373	0.027877	-0.116405
0.008578	0.015637	0.007122	0.010055	0.019495	-0.132762
0.010482	0.017867	0.004426	0.006665	0.008581	-0.127207
0.012151	0.011452	0.011258	-0.000452	0.002293	-0.133707
0.004505	0.01094	0.014352	-0.014782	-0.02181	-0.129624
0.007901	0.011501	0.014709	-0.012094	-0.021539	-0.12316
0.011996	0.006053	0.013773	-0.009584	-0.022392	-0.123323
0.011154	0.009456	0.015626	0.002805	-0.014168	-0.124009
0.006433	-0.000811	0.017573	0.020116	-0.007018	-0.130264
0.006396	0.004192	0.015738	0.028282	-0.00375	-0.132577
0.003323	0.003497	0.016101	0.038638	-0.016124	-0.14446
0.001762	0.003424	0.009934	0.057143	-0.038971	-0.141739
0.000131	0.002648	0.006657	0.044137	-0.049104	-0.136479
0.007126	-0.003464	-0.000145	0.033503	-0.053918	-0.143556
0.006869	-0.002147	-0.002761	0.031857	-0.063467	-0.138224
0.001395	-0.004355	-0.002492	0.047666	-0.061905	-0.136432
-0.000327	0.000665	-9.5e-05	0.072915	-0.071138	-0.136512
-2.7e-05	-0.002402	0.000942	0.090388	-0.075357	-0.144917
-0.003188	0.004765	0.005505	0.096783	-0.080285	-0.147065
-0.008543	0.007434	-0.000783	0.091468	-0.081541	-0.147316
-0.00755	0.001302	0.001076	0.097031	-0.085	-0.145769
0.003154	0.0073	-0.004403	0.096745	-0.089194	-0.142828
0.002719	0.006279	-0.012161	0.083287	-0.089023	-0.136363
0.005025	0.002337	-0.022151	0.08365	-0.093153	-0.130795
0.010268	0.007922	-0.025028	0.07938	-0.091713	-0.122412
0.005749	0.006491	-0.012668	0.07572	-0.090843	-0.11142
-0.002984	0.009259	-0.009044	0.078111	-0.086406	-0.108099
-0.005886	0.007374	-0.003756	0.09888	-0.075497	-0.110729
-0.007231	0.005266	-0.001259	0.096133	-0.077666	-0.103628
-0.002724	0.000859	0.000619	0.091466	-0.068246	-0.105878
0.001035	-0.003549	-0.00703	0.080095	-0.078388	-0.103048
0.003803	-0.014943	-0.011119	0.07077	-0.085514	-0.096341
0.011835	-0.011652	-0.01545	0.077006	-0.088998	-0.101612
0.009528	-0.008009	-0.016346	0.088792	-0.074908	-0.097991
0.008637	-0.000665	-0.013704	0.10095	-0.071764	-0.108661
0.001704	0.000117	-0.009602	0.103518	-0.055487	-0.114337
0.001239	-0.004483	-0.005338	0.111907	-0.054446	-0.120311
-0.006598	-0.012732	-0.001798	0.109557	-0.063704	-0.130778
-0.008326	-0.009566	-0.004105	0.109314	-0.062361	-0.132055
-0.01178	-0.022396	-0.014289	0.111478	-0.06177	-0.141854
-0.004238	-0.022776	-0.015917	0.1197	-0.053081	-0.133304
-0.006324	-0.02264	-0.006849	0.105496	-0.05517	-0.13215
-0.012797	-0.024524	-0.002197	0.100843	-0.063164	-0.132765
-0.020472	-0.014006	0.005991	0.093383	-0.069726	-0.136871
-0.022987	-0.008129	0.004164	0.092087	-0.072463	-0.129086
-0.019737	-0.006012	0.007554	0.094045	-0.078318	-0.131557
-0.013607	-0.0062	0.008086	0.107176	-0.071854	-0.143847
-0.013424	-0.012043	0.005678	0.114998	-0.06177	-0.146728
-0.007991	-0.009852	-0.004858	0.136846	-0.045282	-0.155038
-0.005632	-0.005854	-0.004667	0.149318	-0.033965	-0.164848
0.001164	0.00326	-0.003079	0.155815	-0.027771	-0.167202
-0.008103	0.011873	-0.004538	0.132457	-0.044212	-0.16622
-0.003622	0.015059	0.003706	0.075184	-0.069491	-0.174404
-0.006348	0.018163	0.004689	0.021842	-0.080912	-0.165715
-0.005203	0.015258	0.005545	0.004	-0.068154	-0.155297
0.000178	0.015128	0.003113	0.007203	-0.04349	-0.149215
0.004041	0.009948	-0.002923	0.042807	-0.016294	-0.137581
0.005075	0.010704	-0.007612	0.05407	0.016982	-0.118914
0.003897	0.014466	-0.006564	0.04375	0.026272	-0.111909
0.01057	0.011513	-0.002478	0.038609	0.01816	-0.111291
0.001961	0.010921	0.001477	0.009184	-0.005838	-0.103966
-0.001631	0.006559	0.003317	-0.020968	-0.032728	-0.099745
-0.000805	0.002065	0.003774	-0.040397	-0.051501	-0.092986
7.4e-05	0.002016	0.007804	-0.040969	-0.048151	-0.062777
-0.004773	0.005038	0.008842	-0.033975	-0.030868	-0.049917
-0.001002	0.000555	0.007859	-0.019654	-0.009095	-0.044873
-0.003043	-0.001564	0.01189	-0.010335	0.021467	-0.04793
-0.002119	-0.003751	0.014518	0.001144	0.046965	-0.054265
-0.003387	-0.005876	0.018581	-0.001727	0.048493	-0.043713
0.000481	-0.005846	0.02264	-0.042929	0.003383	-0.046419
-0.005785	-0.005606	0.019331	-0.084941	-0.045976	-0.055024
-0.00327	-0.003178	0.019679	-0.099808	-0.052263	-0.049588
-0.00435	0.000837	0.019242	-0.08083	-0.025676	-0.033895
0.002664	0.005385	0.014532	-0.048189	0.008307	-0.01673
-0.002813	0.003625	0.014183	-0.017987	0.02336	-0.022779
0.000565	0.001619	0.011812	0.008617	0.038355	-0.033827
0.000412	0.004	0.010866	0.016037	0.037258	-0.035772
0.001706	0.001947	0.00784	-0.007832	0.01637	-0.037692
0.003025	-5.9e-05	0.006281	-0.041919	-0.023446	-0.043245
0.004411	-0.000603	0.002535	-0.077839	-0.039908	-0.037506
0.001487	0.003344	-0.002051	-0.093426	-0.036687	-0.030446
0.004246	0.002197	-0.002213	-0.082891	-0.010873	-0.020436
0.005655	0.006113	-0.006072	-0.05438	0.025247	-0.004566
0.004825	0.007832	-0.009919	-0.029916	0.048218	-0.004636
0.006149	0.008003	-0.011524	-0.020223	0.056596	-0.000368
0.003793	0.007401	-0.009471	-0.032319	0.046046	-0.002248
0.002846	0.00674	-0.001572	-0.054585	0.033914	-0.006413
0.002689	0.00599	-0.002386	-0.070996	0.018032	-0.012589
-0.002583	0.007532	-0.000379	-0.085984	0.010176	-0.020335
-0.005705	0.005397	-0.000492	-0.083997	0.010442	-0.013925
-0.003018	0.003873	0.000149	-0.073506	0.023886	-0.006432
0.003433	0.00964	0.001443	-0.068908	0.032971	-0.004543
-0.001301	0.002572	0.005679	-0.067354	0.034801	-0.009423
0.003553	0.001083	0.008497	-0.064259	0.038227	-0.005617
0.000471	0.004057	0.011951	-0.070261	0.025043	-0.003641
-0.000523	-0.001074	0.011898	-0.078789	0.004756	-0.005646
-0.00068	-0.003351	0.006746	-0.095733	-0.011674	-0.011803
0.001944	-0.009119	0.011065	-0.099663	-0.019046	-0.005148
0.000289	-0.013427	0.005151	-0.097281	-0.038573	-0.00689
0.001648	-0.011896	0.00137	-0.087974	-0.044767	-0.016256
0.003541	-0.016122	0.00416	-0.075033	-0.039019	-0.018173
0.002557	-0.017383	0.007617	-0.060108	-0.038965	-0.027321
0.000894	-0.016427	0.008849	-0.053022	-0.032966	-0.026639
-0.000779	-0.017632	0.007919	-0.062943	-0.039227	-0.026557
0.00206	-0.014509	0.001884	-0.07157	-0.040256	-0.03182
0.004868	-0.009746	-0.002802	-0.079219	-0.034468	-0.030935
0.013344	-0.008605	-0.007505	-0.088516	-0.010361	-0.034065
0.010253	0.003007	-0.009571	-0.085932	0.018936	-0.028406
0.014163	0.001386	-0.006347	-0.085086	0.036522	-0.021324
0.010238	0.008494	-0.007612	-0.070518	0.023331	-0.020857
0.011275	0.009652	-0.001463	-0.069701	0.00916	-0.031548
0.004413	0.014366	-0.001901	-0.074293	-0.00281	-0.033337
0.002637	0.017436	-0.001508	-0.080788	-0.003594	-0.02563
0.000792	0.019075	0.005451	-0.085632	-0.004135	-0.038022
-0.003982	0.01705	0.001502	-0.089745	0.002407	-0.040143
1.4e-05	0.017075	0.001245	-0.105474	0.029795	-0.034443
0.001124	0.020855	0.003808	-0.118455	0.060966	-0.037
-0.000766	0.019646	0.007853	-0.126475	0.080414	-0.041064
0.003233	0.017564	0.008355	-0.127872	0.084438	-0.02463
0.000728	0.0155	0.005212	-0.125494	0.093132	-0.020276
0.001175	0.015594	0.011578	-0.12771	0.094926	-0.016521
-0.001122	0.019238	0.009215	-0.122643	0.084007	-0.016858
-1.8e-05	0.011218	0.015021	-0.11177	0.052486	-0.017863
0.002674	0.005262	0.014319	-0.105496	0.017307	-0.014943
0.005447	0.002284	0.013585	-0.102108	0.000576	-0.019441
0.00752	0.000838	0.009149	-0.103302	0.011233	-0.011492
0.002936	-0.002484	0.008971	-0.088538	0.040415	0.013099
0.003578	0.000667	0.002908	-0.08659	0.064418	0.019846
0.001202	0.000302	0.001936	-0.092044	0.080254	0.022251
0.000242	-0.003043	-0.001168	-0.089603	0.089316	0.015787
0.002971	-0.003592	-0.001333	-0.096377	0.082922	0.017502
0.001221	-0.006198	0.010875	-0.103112	0.087385	0.033285
-0.001775	-0.003819	0.009232	-0.110186	0.106942	0.047282
-0.001081	0.000656	0.006876	-0.10265	0.123241	0.044137
-0.000447	0.002233	0.00088	-0.083858	0.1406	0.042802
0.001614	0.005368	-0.000808	-0.068858	0.142259	0.062032
0.002806	0.002741	0.001179	-0.050613	0.148976	0.059265
0.004096	0.00519	0.002391	-0.059325	0.131902	0.051021
0.001749	0.006873	-0.001497	-0.06514	0.108088	0.040444
-0.002728	0.010013	-0.003189	-0.075456	0.083455	0.030882
0.000707	0.011601	0.005384	-0.074554	0.08265	0.022218
-0.004572	0.009513	0.003802	-0.072022	0.106993	0.015197
-0.008348	0.008904	0.00734	-0.079601	0.116486	0.019812
-0.011408	0.006099	0.010926	-0.073724	0.115463	0.027905
-0.003475	0.003086	0.01172	-0.072145	0.105333	0.020128
-0.014333	0.008431	0.01008	-0.065716	0.086278	0.030878
-0.004993	0.001828	0.005783	-0.05719	0.06898	0.023869
-0.003684	-0.002247	0.008616	-0.0583	0.039789	0.007323
-0.001357	0.004506	0.003373	-0.071124	0.01362	-0.000313
-0.003576	0.002693	0.002538	-0.077308	0.001489	-0.01256
-0.002849	7.1e-05	0.001776	-0.064206	0.005627	-0.014528
0.000991	0.007455	-0.00048	-0.041992	0.017039	-0.012593
-0.001257	0.001035	-0.001152	-0.032359	0.023168	-0.012838
-0.000578	-0.003209	-0.004055	-0.027325	0.027668	-0.011483
0.00153	-0.007428	-0.006983	-0.033721	0.032761	0.007978
0.003015	-0.004313	-0.007097	-0.034489	0.030077	0.007771
-0.000612	-0.00032	-0.005833	-0.017062	0.016081	0.003463
0.000708	-0.004454	-0.002242	-0.00967	-0.015289	0.017064
-4.1e-05	-0.002024	0.003467	-0.012864	-0.052272	0.019816
-0.005148	0.000427	0.006972	-0.027537	-0.069076	0.019913
0.000727	0.001096	-0.002501	-0.031323	-0.036663	0.040649
0.009441	0.005551	0.006153	-0.025539	0.017054	0.020602
0.002043	0.004381	0.00087	-0.026353	0.034441	0.047752
0.003349	0.004616	0.000687	-0.025922	0.042677	0.071522
0.000227	0.000542	-0.006055	-0.014083	0.059375	0.053519
0.002235	0.003022	0.000265	-0.000638	0.050104	0.042043
0.000586	0.004025	0.00734	-0.009159	0.010268	0.045365
0.00129	0.006202	0.002882	-0.021988	-0.027123	0.061248
-0.002457	0.001224	0.004345	-0.037934	-0.039531	0.04729
-0.003938	0.002748	0.008662	-0.036364	-0.014355	0.067283
-0.006912	0.002093	0.010804	-0.034561	0.00439	0.083462
-0.003276	0.00206	0.007155	-0.03508	0.009108	0.085956
0.000195	-0.002963	0.008601	-0.047498	-0.005087	0.103509
0.000882	-0.000663	0.006285	-0.072462	-0.028063	0.111998
-0.001354	0.000259	0.003232	-0.089764	-0.035701	0.121918
-0.005725	0.00558	0.005957	-0.082825	-0.025804	0.138056
-0.001433	0.00195	0.003794	-0.074517	-0.025406	0.146195
-0.000727	0.004303	0.010262	-0.057847	-0.0403	0.154544
0.002961	0.004953	0.002255	-0.062395	-0.05167	0.171943
0.004396	0.006515	0.003636	-0.071227	-0.05358	0.175955
0.005657	-0.001381	0.002185	-0.065477	-0.050366	0.171411
0.008017	0.012529	-0.001701	-0.059135	-0.039106	0.170308
0.011384	0.003903	-0.002454	-0.066823	-0.039429	0.154759
0.00394	0.004948	0.002421	-0.062544	-0.051044	0.138176
0.002438	0.007152	-0.000601	-0.070585	-0.05031	0.114532
0.000134	0.007132	0.001516	-0.074025	-0.058231	0.092313
-0.002255	-0.000957	0.000851	-0.067272	-0.052973	0.073795
-0.000964	-0.005494	0.002362	-0.066087	-0.048391	0.07184
-0.006227	-0.009847	-0.000595	-0.056053	-0.035331	0.061612
-0.002671	-0.007653	0.00369	-0.054357	-0.029743	0.064541
-0.004287	-0.007473	0.005711	-0.056763	-0.026552	0.061001
-0.000782	-0.005161	0.009187	-0.053187	-0.02044	0.061857
-0.002299	-0.001368	0.008272	-0.043845	-0.010676	0.051004
-0.0002	0.000177	0.008883	-0.034349	-0.013894	0.04722
0.001902	0.000957	0.01099	-0.032584	-0.011993	0.038708
-0.001001	0.004014	0.009409	-0.033117	-0.015885	0.033725
-0.005429	0.00192	0.004253	-0.037902	-0.024891	0.02569
-0.002539	0.004143	0.006375	-0.03925	-0.028729	0.027774
-0.001802	0.005602	-0.002442	-0.035588	-0.021486	0.031884
-0.006302	0.002896	-0.004742	-0.035201	-0.006968	0.024123
-0.000546	0.004445	-0.001919	-0.030651	-0.002497	0.0272
-0.007139	0.008299	-0.002117	-0.025856	-0.00801	0.023417
-0.004244	0.009024	-0.00214	-0.016657	-0.00533	0.023022
-0.003645	0.006852	0.007338	-0.009106	0.007649	0.032533
-0.003756	0.000966	0.008883	-0.00819	0.026179	0.027398
-0.000854	0.000764	0.008949	-0.019802	0.016051	0.022807
0.000454	-0.006656	0.006136	-0.036529	-0.012621	0.002311
0.001152	-0.005238	0.004629	-0.057546	-0.023816	-0.000869
0.004592	-0.011802	0.00172	-0.063199	-0.041262	0.007743
0.000278	-0.002074	0.002905	-0.06746	-0.04812	0.010749
-0.003433	0.001138	0.004142	-0.060405	-0.044466	-0.008308
-0.004793	0.010771	0.000265	-0.032316	-0.008738	0.017419
-0.002014	0.007938	0.000215	-0.0039	0.030007	0.026179
-0.00285	0.005123	-0.001293	0.006201	0.066825	0.023866
-0.002917	0.004419	-0.001332	-0.012045	0.06881	0.016954
-0.005049	0.009548	0.001502	-0.020297	0.049827	0.014331
0.001454	0.006488	0.003061	-0.03266	0.031185	0.020464
-3e-06	0.007994	0.005935	-0.045965	0.015211	0.021405
-0.001401	0.010934	0.005897	-0.056501	-0.010318	0.006981
0.004478	0.014518	0.010273	-0.064987	-0.026899	-0.01137
0.005973	0.015957	0.011006	-0.060097	-0.025446	-0.026469
0.007461	0.013656	0.005263	-0.056607	-0.021688	-0.011081
0.004629	0.015863	0.005989	-0.045666	-0.000868	0.012835
0.003205	0.014342	0.005334	-0.040964	0.044981	0.001788
0.006098	0.008366	0.004049	-0.031161	0.09388	0.007264
0.004665	0.006131	0.00633	-0.019928	0.109779	0.00855
0.00615	0.003826	0.007178	-0.031718	0.096246	-0.005868
0.006285	0.000805	0.00738	-0.039959	0.057442	-0.010185
-2.4e-05	0.005989	0.006661	-0.053649	0.013959	-0.025411
0.00597	0.004328	0.006162	-0.057518	-0.017632	-0.031372
-0.000439	0.003588	0.00481	-0.060408	-0.031808	-0.028085
-0.00037	-0.001635	0.000628	-0.056897	-0.003996	-0.026992
-0.003213	-0.000135	0.00868	-0.045925	0.009488	-0.027034
-0.002509	-0.008973	0.003045	-0.03652	0.023	-0.015141
-0.000904	-0.006837	0.00092	-0.036318	0.048582	-0.007851
-0.004496	-0.006702	0.0031	-0.043524	0.06932	-0.017252
-0.004381	-0.007359	-0.003418	-0.047109	0.056978	-0.016931
5.5e-05	-0.00586	0.000249	-0.052428	0.034186	-0.034027
-0.005695	-0.004938	0.003139	-0.051026	0.026675	-0.037901
0.000923	-0.007235	-0.001843	-0.041049	0.02279	-0.036675
0.002444	-0.005729	0.000351	-0.050372	0.001309	-0.043413
0.005347	-0.007137	0.004028	-0.052676	0.005994	-0.039389
0.006095	-0.005609	0.005449	-0.054052	0.017718	-0.035554
0.006874	-0.005653	-0.000359	-0.08277	0.016092	-0.027708
0.00389	-0.007722	-0.001134	-0.093625	0.022305	-0.024306
0.00013	-0.011168	-0.003403	-0.0994	0.027769	-0.017582
-0.005862	-0.013081	0.001555	-0.098004	0.041195	-0.008101
-0.013992	-0.015074	0.002176	-0.104863	0.046402	-0.017872
-0.015616	-0.017814	0.011585	-0.101667	0.048548	-0.022481
-0.016385	-0.01846	0.007881	-0.096202	0.06506	-0.030206
-0.012006	-0.014683	0.00996	-0.089282	0.074813	-0.040823
-0.011219	-0.009337	0.010528	-0.082626	0.078541	-0.042762
-0.001813	-0.012122	0.004664	-0.078243	0.071109	-0.041181
0.000404	-0.005161	0.005126	-0.084763	0.067769	-0.042084
-0.000398	-0.00244	0.009961	-0.09154	0.078831	-0.040102
-0.001798	0.00378	0.003131	-0.085877	0.087636	-0.047423
0.000221	-0.000351	-0.003556	-0.079972	0.080486	-0.042595
0.000796	-0.002378	-0.010992	-0.074046	0.055872	-0.049425
0.001937	-0.003469	-0.001053	-0.064786	0.049433	-0.054794
-0.004899	-0.003048	0.003716	-0.06508	0.045743	-0.063269
-0.004251	4.4e-05	-0.003796	-0.066665	0.05509	-0.055896
-0.005154	0.001088	0.00181	-0.057242	0.078083	-0.057073
-0.011023	0.003594	0.001606	-0.058107	0.084869	-0.06119
0.001373	0.00648	0.002308	-0.060798	0.071867	-0.059908
0.000646	0.009605	0.001431	-0.063078	0.047889	-0.05757
0.000563	0.010659	0.003437	-0.066898	0.03117	-0.062465
0.004148	0.013156	0.002508	-0.055848	0.011684	-0.063357
0.007724	0.020048	0.006587	-0.048932	-0.010455	-0.057267
0.004055	0.02469	0.003431	-0.043088	-0.021555	-0.047714
0.006966	0.029846	0.006955	-0.040735	-0.025472	-0.050597
-0.001175	0.024922	0.008375	-0.040821	-0.038053	-0.049439
-0.004667	0.032262	0.010481	-0.040957	-0.033125	-0.052313
-0.003325	0.023486	0.012087	-0.041516	-0.033827	-0.048829
0.003342	0.023276	0.008588	-0.03647	-0.031403	-0.049631
0.005681	0.02389	0.002132	-0.03103	-0.036687	-0.049886
0.004397	0.02983	0.0094	-0.033058	-0.041006	-0.054816
-0.000457	0.03281	0.008741	-0.032611	-0.037839	-0.054585
-0.006762	0.036455	0.011752	-0.054356	-0.044823	-0.078061
-0.005782	0.032595	0.014293	-0.067245	-0.037614	-0.062076
-0.002466	0.032146	0.011813	-0.06398	-0.020884	-0.060883
0.003715	0.02799	0.010143	-0.050889	-0.024289	-0.057062
0.01792	0.023702	0.009274	-0.02994	-0.033137	-0.061752
0.005856	0.018466	0.003056	-0.016043	-0.029869	-0.062267
0.011969	0.015267	0.006366	-0.006568	-0.028528	-0.071005
0.004416	0.018071	0.002253	-0.000252	-0.02489	-0.076989
0.000477	0.019352	0.004774	0.005184	-0.040067	-0.084284
0.003858	0.016734	0.005312	0.012519	-0.049991	-0.089122
-0.002957	0.01052	0.003705	0.021887	-0.05469	-0.095388
0.004123	0.005431	0.00224	0.015814	-0.064359	-0.102094
0.009771	0.001075	-0.002892	0.009855	-0.052722	-0.092734
0.004358	-0.004297	0.001264	-0.000179	-0.04176	-0.100985
0.005625	-0.003981	-0.001162	0.000369	-0.036546	-0.101212
0.006888	-0.000644	-0.000768	0.016147	-0.030573	-0.104701
0.001545	-0.000122	-0.004781	0.029856	-0.029595	-0.089347
0.004741	-0.003296	0.004367	0.048607	-0.032401	-0.103422
-0.001291	-0.001392	-0.003292	0.050519	-0.03162	-0.116281
0.001915	-0.008346	-0.002061	0.055706	-0.031506	-0.119652
0.003794	-0.007241	-0.000947	0.052609	-0.024721	-0.118155
0.000518	-0.00746	-0.000625	0.041324	-0.031633	-0.115135
0.004567	-0.004827	0.000423	0.036628	-0.028958	-0.119689
-0.000205	-0.002743	0.003552	0.031776	-0.028357	-0.123423
0.001647	0.001384	0.004541	0.046534	-0.038593	-0.130025
-0.000924	0.002608	0.002621	0.06186	-0.039284	-0.134208
0.003762	0.001431	-0.002843	0.07564	-0.046406	-0.138816
0.005491	0.001816	-0.008411	0.07044	-0.044762	-0.142873
0.008462	-0.002755	-0.003803	0.060216	-0.032984	-0.149614
0.01085	0.002825	0.001415	0.057048	-0.029152	-0.148444
0.004396	0.001983	0.003724	0.06286	-0.033296	-0.157396
0.003034	0.000327	0.009747	0.075098	-0.046841	-0.162181
0.002511	0.000738	0.010709	0.085358	-0.045263	-0.174367
0.005694	0.003221	0.007315	0.095562	-0.04069	-0.185503
0.003505	-0.004311	0.007561	0.103966	-0.044757	-0.184089
0.002429	0.008636	0.004641	0.106722	-0.049524	-0.188946
0.002493	0.004846	-0.001039	0.105547	-0.0615	-0.180269
-0.000341	0.006287	0.003375	0.098348	-0.082295	-0.188626
-0.011056	0.010719	0.009234	0.096711	-0.092875	-0.184874
-0.012201	0.012611	0.00876	0.099907	-0.084471	-0.169816
-0.008282	0.011433	0.006195	0.101358	-0.066552	-0.171103
-0.010963	0.008956	0.008692	0.115088	-0.068832	-0.167798
-0.014274	0.010893	0.01114	0.121841	-0.065142	-0.17494
-0.013867	0.011275	0.003461	0.1309	-0.07878	-0.18251
-0.013526	0.012564	0.008841	0.117135	-0.086395	-0.175182
-0.01162	0.014443	0.00554	0.102999	-0.085181	-0.178771
-0.012735	0.009081	0.005241	0.087126	-0.089502	-0.170789
-0.01735	0.009544	0.006363	0.089657	-0.081923	-0.171886
-0.018322	0.008427	0.007565	0.089943	-0.081978	-0.172274
-0.017023	0.006487	0.006681	0.093202	-0.074426	-0.176135
-0.014994	-0.000613	-0.002118	0.097503	-0.077394	-0.165279
-0.01005	-0.003163	-0.006678	0.08501	-0.094621	-0.152433
-0.000691	-0.002032	-0.018617	0.07435	-0.1029	-0.15536
0.007112	6.6e-05	-0.027792	0.066841	-0.102206	-0.141681
0.011165	0.003045	-0.033454	0.068897	-0.114501	-0.13364
0.016725	0.013222	-0.03629	0.055662	-0.104752	-0.129005
0.01309	0.005257	-0.030999	0.052556	-0.089333	-0.132613
0.015406	0.004202	-0.024927	0.057923	-0.072881	-0.134011
0.012542	-0.002903	-0.02823	0.074443	-0.05407	-0.122324
0.012468	-0.00784	-0.019942	0.061072	-0.074472	-0.112773
0.011543	-0.014918	-0.013898	0.032846	-0.097032	-0.125225
0.006986	-0.018306	-0.015275	0.018072	-0.10058	-0.131261
0.003761	-0.019992	-0.007329	0.013579	-0.08872	-0.121824
0.009253	-0.021073	-0.006678	0.027993	-0.052832	-0.120524
0.004325	-0.026179	0.001844	0.046512	-0.018986	-0.119671
0.000939	-0.023947	0.008776	0.053621	-0.005983	-0.112288
-0.004557	-0.017283	0.011973	0.046434	-0.024903	-0.126963
9.2e-05	-0.013658	0.013801	0.024252	-0.043067	-0.134859
0.002542	-0.00847	0.016277	0.002126	-0.047404	-0.126077
0.002677	-0.009729	0.018044	-0.00629	-0.050287	-0.124123
5.9e-05	-0.00289	0.018968	0.000169	-0.029778	-0.119104
0.002446	-0.001941	0.015601	0.014218	-0.005493	-0.110553
0.004852	-0.000222	0.01368	0.026099	0.010844	-0.114536
0.005869	0.005878	0.014625	0.03405	0.022806	-0.117821
0.000277	0.010644	0.019174	0.036792	0.043351	-0.12546
0.000548	0.009401	0.014435	0.045856	0.057908	-0.13208
-0.003444	0.011881	0.011113	0.055601	0.064265	-0.145698
-0.003704	0.015738	0.008584	0.054878	0.06337	-0.159692
-0.004613	0.021784	0.00752	0.045888	0.061832	-0.17426
-0.002763	0.019102	0.013876	0.034179	0.067594	-0.179484
-0.000688	0.01914	0.005739	0.01562	0.0733	-0.182758
-0.005048	0.025911	0.006978	0.004765	0.07813	-0.182203
-0.008033	0.02309	0.001835	0.000697	0.089275	-0.169708
0.001523	0.029454	-0.000372	-0.006742	0.096949	-0.171414
-0.002961	0.023615	-0.002516	-0.015017	0.077129	-0.171211
-0.00598	0.019161	-0.001001	-0.04836	0.018242	-0.139362
-0.005299	0.014573	-0.000859	-0.081671	-0.02387	-0.128552
-0.008188	0.012938	-2.3e-05	-0.101987	-0.038395	-0.083682
-0.011777	0.010458	-0.003508	-0.103658	-0.041557	-0.049096
-0.011101	0.003611	0.000366	-0.096916	-0.026463	-0.04523
-0.015479	-0.00236	0.002731	-0.097451	-0.017791	-0.02931
-0.011604	-0.001225	-0.002888	-0.101225	-0.017249	-0.012052
-0.012314	-0.006391	0.00312	-0.102942	-0.021509	-0.023138
-0.00631	-0.006606	0.001859	-0.103522	-0.040484	-0.05421
-0.006825	-0.006035	-0.006017	-0.110263	-0.065528	-0.055643
-0.006748	-0.00904	-0.005134	-0.12559	-0.077036	-0.04646
-0.001668	-0.014271	-0.000582	-0.129363	-0.075066	-0.049251
-0.00081	-0.012892	-0.002697	-0.135233	-0.053812	-0.041068
-0.005188	-0.015726	0.000259	-0.1405	-0.02569	-0.010183
0.002926	-0.015182	-0.007666	-0.13846	-0.014323	0.010498
0.00288	-0.015075	-0.007732	-0.135373	-0.00255	0.016518
0.008702	-0.008492	-0.004955	-0.129921	-0.016467	0.013727
0.004023	-0.015549	-0.002152	-0.136822	-0.039835	0.009413
0.006931	-0.008231	-0.003061	-0.141594	-0.046181	0.00574
0.006614	-0.013904	0.003396	-0.148004	-0.041927	0.009047
0.004977	-0.01315	0.00178	-0.154459	-0.020683	-0.009038
0.00406	-0.008669	0.005906	-0.148215	-0.000497	-0.008072
0.006003	-0.00785	0.004966	-0.137301	0.016161	-0.014897
0.005008	-0.003251	0.007535	-0.126999	0.040075	-0.024349
0.001083	-0.000819	0.004272	-0.130119	0.056733	-0.018514
0.001541	0.00304	0.001736	-0.1354	0.073845	-0.007071
0.001253	0.007683	0.005741	-0.129834	0.082445	-0.01132
0.007553	0.010645	0.004763	-0.12799	0.080642	-0.004894
-0.003777	0.007344	0.00297	-0.125051	0.073559	-0.003075
-0.001835	0.011818	0.007797	-0.121112	0.070163	-0.001786
-0.003579	0.009676	0.003239	-0.109992	0.064816	0.010684
-0.000279	0.003068	0.002448	-0.105126	0.061112	0.018732
-0.00193	0.005348	0.00589	-0.109924	0.058869	0.01159
-0.007962	0.005567	0.009326	-0.117234	0.070498	0.020763
-0.006601	0.008565	0.007702	-0.120155	0.084102	0.015207
-0.005286	0.012376	0.013324	-0.119734	0.092351	0.006704
-0.001747	0.012444	0.006648	-0.115948	0.08945	0.013673
-0.002503	0.015559	0.004296	-0.115592	0.074681	0.015541
-0.000306	0.020832	0.002667	-0.104664	0.075641	0.008921
0.001743	0.018131	0.00111	-0.099486	0.064096	0.006472
-0.002615	0.021284	-0.001967	-0.102942	0.070595	0.00442
-0.004824	0.02071	-0.000558	-0.105622	0.072673	0.003732
-0.001994	0.017824	0.008236	-0.102424	0.066074	0.005139
0.000939	0.014013	0.005468	-0.100877	0.054297	0.016669
-0.002658	0.011834	0.00847	-0.102401	0.047398	0.011366
-0.000223	0.016053	0.002005	-0.10945	0.05137	0.005643
-0.002359	0.013241	0.007194	-0.120031	0.060413	0.003979
0.00499	0.009511	0.00151	-0.125505	0.051177	0.000341
0.008869	0.015379	-0.003595	-0.118848	0.052877	0.004148
0.011116	0.01698	-0.004362	-0.11566	0.039301	0.00051
0.011115	0.015685	-0.005115	-0.113957	0.033736	-0.009803
0.014818	0.017104	-0.00289	-0.10922	0.035547	-0.005612
0.008913	0.00837	-0.00129	-0.106766	0.039557	-0.003762
0.006769	0.006797	0.005398	-0.096439	0.052137	-0.003784
0.003231	0.004414	0.001918	-0.094221	0.049882	-0.00368
0.001113	0.002097	0.003519	-0.085173	0.040998	0.012667
0.000327	-0.006051	0.000781	-0.085792	0.024587	0.009987
0.000303	-0.006766	0.00517	-0.074005	0.010965	0.011955
-0.000358	-0.001607	0.007273	-0.059249	0.00388	0.013835
0.007624	-0.00461	0.00883	-0.055307	0.009057	0.008131
0.003278	-0.003743	0.01024	-0.042258	0.005422	0.013646
0.006307	0.000567	0.01244	-0.04241	-0.005025	-0.005035
0.00343	-0.001589	0.012501	-0.060983	-0.012507	0.001257
0.00715	-0.002489	0.012636	-0.071175	-0.0069	0.008404
0.010935	0.001046	0.012693	-0.064207	0.000972	0.028855
0.015319	-0.001232	0.01206	-0.052155	0.007034	0.022009
0.008868	0.002547	0.004667	-0.030638	0.020095	0.0332
0.005923	0.001956	0.000216	-0.018012	0.019037	0.045951
0.005785	-0.000812	0.000141	-0.008697	0.016327	0.052123
0.001322	-0.002844	-0.002861	-0.004057	0.01282	0.054404
-0.006709	-0.002712	-0.00513	-0.001539	0.015877	0.068068
-0.005304	-0.003461	0.002183	-0.001987	0.025975	0.068608
-0.008237	-0.007225	0.000825	-0.003974	0.034587	0.088697
-0.011971	-0.012364	0.009674	-0.008547	0.040839	0.095611
0.001181	-0.01343	0.009124	-0.014589	0.042422	0.077884
0.001304	-0.009131	0.003274	-0.012362	0.035219	0.071298
0.002117	-0.000292	0.005294	-0.016253	0.025989	0.089826
0.0042	0.002771	0.010968	-0.018233	0.026274	0.107461
0.004109	0.001344	0.002875	-0.018591	0.046883	0.119166
-0.000383	0.003675	0.005612	-0.024448	0.065916	0.122031
-0.008386	0.008894	0.002514	-0.023012	0.077318	0.127696
-0.006254	0.010362	0.012697	-0.028296	0.064431	0.140895
-0.009145	0.009572	0.010547	-0.032077	0.030135	0.135549
-0.017024	0.009533	0.004777	-0.052737	0.003947	0.143408
-0.009622	0.008551	0.005707	-0.058609	0.001958	0.150491
-0.001383	0.011888	0.005896	-0.059771	0.016926	0.159432
-0.005545	0.014743	0.00525	-0.054671	0.037922	0.16448
-0.003895	0.013834	0.00107	-0.050106	0.052957	0.153526
-0.00451	0.011509	0.004905	-0.045568	0.051087	0.139044
-0.003589	0.010543	0.004402	-0.047728	0.043764	0.113769
-0.009939	0.011187	0.006005	-0.047434	0.037713	0.104705
-0.005351	0.008681	0.004856	-0.057347	0.011746	0.08908
-0.005871	0.003359	-0.0014	-0.068707	0.001602	0.088773
-0.007042	0.00544	0.001705	-0.076979	-0.003667	0.087212
-0.003826	0.005945	0.001975	-0.078596	-0.001805	0.087294
0.000904	0.006374	-0.005743	-0.066313	-0.007926	0.094133
-0.002473	0.007807	0.000263	-0.050784	-0.009754	0.073168
0.004376	0.006748	-0.000862	-0.041358	-0.007691	0.077766
0.005987	0.000715	0.003842	-0.032259	-0.012978	0.057376
0.003336	0.000544	0.007733	-0.031706	-0.016634	0.046473
-0.002205	0.001137	0.010872	-0.027212	-0.014529	0.031106
0.004743	0.005123	0.010445	-0.040883	-0.015509	0.016764
0.009283	-0.000301	0.008597	-0.070463	-0.025883	0.025879
0.00732	-0.003359	7.2e-05	-0.093985	-0.052371	0.022762
0.00753	-0.001212	0.000909	-0.098834	-0.056334	0.010555
0.01497	-0.001376	-0.004041	-0.09109	-0.054866	-0.003232
0.0173	0.001561	-0.001816	-0.065465	-0.052735	-0.008792
0.011541	0.001629	0.001124	-0.036408	-0.035488	0.011895
0.0088	0.004469	0.003388	-0.029375	0.006074	0.006815
0.003841	0.005821	0.007865	-0.035931	0.026678	-0.001631
0.001715	-0.00018	0.008824	-0.041866	0.026202	-0.026091
-0.004633	0.000443	0.006039	-0.059227	-0.006746	-0.032002
-0.003022	-0.001165	0.001105	-0.067959	-0.033091	-0.018801
-2.4e-05	-0.002646	-0.001719	-0.082936	-0.053465	-0.025748
-0.000561	0.00256	-0.006868	-0.090284	-0.062318	-0.030408
-0.00127	0.001936	-0.008338	-0.072581	-0.049995	-0.03549
-0.00197	0.001262	-0.008321	-0.039771	-0.00561	-0.022257
-0.003302	0.004855	-0.007576	-0.03373	0.053159	-0.019827
-0.000436	0.001771	-0.003086	-0.026338	0.075508	-0.031078
0.000153	-0.007186	-0.002907	-0.031099	0.05134	-0.041086
-0.003482	-0.00577	0.001461	-0.03994	0.017868	-0.038755
-0.005028	-0.011611	7.2e-05	-0.042605	-0.003559	-0.032177
-0.006309	-0.003593	-0.003659	-0.04155	0.000584	-0.030228
-0.004847	0.00094	0.006444	-0.035863	0.007189	-0.028126
-0.009046	0.006851	-0.001664	-0.027165	0.012567	-0.025013
-0.006947	0.004763	0.002695	-0.023187	0.026913	-0.032814
-0.006132	0.009177	-0.001021	-0.007667	0.032923	-0.025134
-0.005446	0.006313	-0.002462	-0.002602	0.039732	-0.021192
-0.004735	0.005653	0.000451	0.002535	0.068147	-0.038595
-0.003199	0.007857	-0.001012	-0.005436	0.092152	-0.023669
-0.000967	0.00785	-0.002438	-0.003912	0.10385	-0.022669
0.009334	0.013535	0.000495	-0.026073	0.086453	-0.015216
0.004952	0.011424	-0.006086	-0.033513	0.066308	0.000871
0.009287	0.013575	-0.005408	-0.056543	0.044999	-0.014794
0.005543	0.013657	-0.005511	-0.05556	0.02682	-0.026194
0.003188	0.010785	-0.004113	-0.043021	0.030295	-0.032696
0.003208	0.01652	-0.002007	-0.032209	0.026254	-0.032853
0.000184	0.014227	0.000926	-0.02351	0.038181	-0.037044
0.002272	0.011024	0.00249	-0.023375	0.044757	-0.039461
-0.002236	0.005736	0.003298	-0.035412	0.058711	-0.063987
0.002763	0.000987	-0.000196	-0.043288	0.077192	-0.072871
0.003954	-0.007195	0.007187	-0.055448	0.075569	-0.04534
-0.000448	-0.005122	0.004214	-0.074103	0.057387	-0.040428
5.3e-05	-0.010268	0.010784	-0.07589	0.019446	-0.044691
-0.001535	-0.015393	0.008621	-0.064743	0.012334	-0.052983
-0.001475	-0.009607	0.009272	-0.046714	0.002744	-0.061028
-0.001592	-0.014003	0.007838	-0.04429	0.013256	-0.044633
0.001426	-0.0082	0.004128	-0.042236	0.022202	-0.043871
0.004256	-0.011851	-0.003889	-0.03515	0.033836	-0.045193
0.003378	-0.015334	-0.008352	-0.037525	0.035013	-0.053819
0.000987	-0.017953	-0.007793	-0.035199	0.049084	-0.055645
-0.000633	-0.015417	-0.002213	-0.039929	0.039777	-0.04379
-0.008015	-0.012124	-0.001754	-0.048828	0.017192	-0.046537
-0.016019	-0.004487	0.00088	-0.060998	-0.004529	-0.050201
-0.018342	-0.005033	0.001471	-0.066573	-0.014182	-0.046811
-0.012727	-0.007052	0.007194	-0.061554	-0.018364	-0.049338
-0.005541	-0.004082	0.002664	-0.047263	-0.016539	-0.055646
0.002345	-0.001073	-0.001164	-0.040558	-0.015395	-0.057296
0.00582	0.004318	-0.001484	-0.032113	-0.001926	-0.048818
0.004124	0.009104	0.00397	-0.037256	0.00547	-0.054377
0.003223	0.012949	0.003701	-0.049885	0.01699	-0.055632
-0.002071	0.016172	0.009978	-0.067694	0.007968	-0.058362
-0.002218	0.017706	0.011283	-0.067125	0.000387	-0.048925
0.001293	0.017662	0.012679	-0.063596	0.000761	-0.049665
-0.000178	0.022106	0.014005	-0.05389	0.007003	-0.043213
0.000601	0.023492	0.005245	-0.051794	0.008181	-0.032627
0.002734	0.021273	0.003078	-0.048982	0.020963	-0.03142
0.001286	0.022797	0.002293	-0.055269	0.018538	-0.027357
-0.003083	0.023599	0.002977	-0.055743	0.013976	-0.033974
0.001383	0.024146	0.001629	-0.043809	0.013945	-0.023692
-0.008071	0.019053	0.001004	-0.039051	0.021842	-0.025119
-0.009366	0.019574	0.003359	-0.046698	0.022432	-0.033906
-0.009888	0.019275	0.004329	-0.05618	0.011507	-0.038272
-0.005418	0.015252	0.009008	-0.065325	0.002984	-0.041658
-0.004429	0.01711	0.012172	-0.061157	-0.007431	-0.040089
-0.004158	0.01898	0.014605	-0.042677	-0.017571	-0.043752
-0.001038	0.014212	0.012054	-0.030332	-0.029637	-0.049341
0.005057	0.011605	0.008043	-0.016827	-0.037119	-0.055325
0.003914	0.012113	0.006844	-0.005933	-0.040788	-0.053267
0.005568	0.006782	0.007173	-0.006119	-0.048793	-0.049896
0.007298	0.005068	0.007479	-0.021359	-0.052543	-0.058339
0.008965	-0.000245	0.01074	-0.038182	-0.048993	-0.065547
0.01075	-0.000513	0.013249	-0.052404	-0.046015	-0.067103
0.014624	-0.007408	0.010745	-0.056942	-0.050808	-0.057527
0.012101	-0.003161	0.008746	-0.034364	-0.046742	-0.063953
0.010923	-0.00546	0.002429	-0.004697	-0.034562	-0.06948
0.01272	-0.001949	-0.002505	0.016756	-0.015797	-0.070925
0.014487	0.004518	-0.004611	0.033648	0.001576	-0.069602
0.010146	0.00026	0.002052	0.03327	0.010989	-0.081519
0.014062	0.002925	-0.007991	0.017935	0.006772	-0.08478
0.014973	0.005644	-0.010799	0.010595	-0.006753	-0.094751
0.018656	0.005392	-0.012147	-0.00479	-0.018757	-0.107577
0.013584	0.006749	-0.01141	-0.004593	-0.016789	-0.109177
0.013558	0.008819	-0.002655	0.011034	-0.007466	-0.122073
0.010515	0.006517	0.004659	0.041276	-7.9e-05	-0.115294
0.007695	0.012864	0.006096	0.058537	-0.004154	-0.119155
0.001015	0.006829	0.004001	0.057423	-0.002285	-0.119409
0.006028	0.002808	0.003427	0.064587	-0.001153	-0.132268
-0.000715	-0.003108	0.004913	0.068269	-0.012227	-0.126147
-0.005216	-0.005421	0.001976	0.063375	-0.041341	-0.130832
-0.000855	-0.002037	-0.00095	0.050472	-0.049259	-0.138448
-0.003227	-0.003491	0.006273	0.053403	-0.052036	-0.141307
-0.004788	-0.005816	0.001169	0.062655	-0.055511	-0.136791
-0.012114	-0.002831	0.005427	0.080791	-0.048392	-0.163382
-0.012778	0.000705	0.005419	0.086467	-0.039028	-0.158335
-0.017122	0.00064	0.005447	0.095945	-0.036847	-0.162269
-0.02216	0.00137	0.010584	0.109086	-0.034576	-0.167638
-0.018325	0.001098	0.003487	0.126754	-0.027872	-0.179567
-0.007967	0.001524	3.8e-05	0.141358	-0.028345	-0.185178
0.0002	0.003472	-0.006403	0.138193	-0.039623	-0.178369
0.005398	0.007759	-0.008595	0.137818	-0.063333	-0.1935
-0.000451	0.008637	-0.007223	0.141639	-0.081891	-0.201713
-0.004887	0.006552	-0.002134	0.14571	-0.083107	-0.217087
-0.006172	0.013717	4.5e-05	0.156669	-0.071951	-0.215427
-0.009813	0.009897	0.002373	0.159081	-0.056441	-0.21855
-0.008252	0.005881	-0.000281	0.157068	-0.036482	-0.218376
-0.000942	-0.003268	-0.005041	0.150307	-0.046865	-0.203822
0.001395	-0.001231	-0.010062	0.136379	-0.061489	-0.192244
0.007195	-0.000531	-0.009342	0.12439	-0.080487	-0.198263
0.00718	0.002536	-0.012395	0.11163	-0.093658	-0.201095
0.007186	0.011485	-0.006069	0.100835	-0.083467	-0.194788
0.007084	0.012244	-0.0047	0.088418	-0.082584	-0.18297
0.001825	0.01004	-0.0033	0.081446	-0.076374	-0.158899
0.006038	0.006916	0.002595	0.064731	-0.086076	-0.153311
0.010163	-0.001354	0.004168	0.04797	-0.094851	-0.148597
0.015926	0.001267	-0.000228	0.04461	-0.086395	-0.135455
0.014308	0.001984	-0.003282	0.05434	-0.067581	-0.125904
0.013219	-0.001555	-0.002011	0.059826	-0.042139	-0.12324
0.010724	-0.001486	-0.006639	0.066003	-0.032514	-0.123535
0.004617	0.003072	-0.002609	0.08057	-0.035086	-0.144726
-0.003743	0.004655	0.002188	0.089071	-0.046727	-0.13564
-0.004221	-0.001255	0.006417	0.08167	-0.082642	-0.157834
-0.002493	-0.007185	0.011404	0.059043	-0.105372	-0.156805
-0.005742	-0.007936	0.008266	0.038095	-0.103899	-0.143308
-0.003899	-0.010132	0.005164	0.029992	-0.084468	-0.135339
-0.000588	-0.010126	0.005678	0.021672	-0.077974	-0.127079
-0.006048	-0.011397	0.006128	0.025429	-0.062557	-0.116867
-0.004781	-0.00403	0.008736	0.032205	-0.039796	-0.118847
-0.002322	-0.013406	0.005694	0.046121	-0.016966	-0.123223
-0.001841	-0.007373	0.007523	0.05841	0.000141	-0.130038
-0.008156	-0.011976	0.012995	0.065199	0.001381	-0.131319
-0.000373	-0.006677	0.006819	0.059488	-0.0213	-0.138771
-0.005742	-0.000241	0.008491	0.043303	-0.059158	-0.14731
0.001341	0.008159	0.009524	0.011443	-0.083845	-0.151709
0.000364	0.011492	0.006222	-0.006944	-0.08231	-0.151623
0.00381	0.01611	0.003719	-0.015523	-0.056625	-0.147389
0.004294	0.018521	0.000501	-0.010637	-0.023427	-0.143043
0.00531	0.012189	0.001746	0.000273	0.008559	-0.133396
0.002128	0.014661	0.001412	0.002382	0.035478	-0.133861
0.001137	0.015583	-0.003243	-0.009	0.016592	-0.131955
-0.000613	0.016563	-0.003546	-0.029594	-0.014	-0.123906
-0.006025	0.016091	0.000555	-0.053837	-0.045443	-0.128607
-0.004128	0.012455	0.001907	-0.077959	-0.059418	-0.121029
-0.01012	0.010308	-0.000377	-0.104765	-0.054293	-0.106742
-0.008108	0.005809	0.001116	-0.102045	-0.017576	-0.097359
-0.006063	0.002019	0.003353	-0.095551	0.022398	-0.082449
-0.003968	0.001212	0.006998	-0.080398	0.052396	-0.083403
-0.006309	-0.004605	0.008483	-0.070897	0.064348	-0.082078
-0.006377	-0.003786	0.011319	-0.061751	0.057252	-0.083853
-0.006464	-0.007375	0.006933	-0.061011	0.027432	-0.08675
-0.004299	-0.005883	0.002485	-0.088627	-0.024246	-0.079893
-0.003129	-0.014475	0.003178	-0.116397	-0.057025	-0.08684
-0.002386	-0.008539	-0.001374	-0.129963	-0.063963	-0.068718
-0.003303	-0.012734	-0.000729	-0.11809	-0.066715	-0.037873
-0.004916	-0.013951	0.003509	-0.082266	-0.072788	-0.020937
-0.006489	-0.014539	0.004861	-0.03379	-0.089679	-0.027456
-0.003709	-0.015215	0.008436	-0.027488	-0.090426	-0.040323
-0.001541	-0.013003	0.003976	-0.066045	-0.068547	-0.059834
-0.003158	-0.013607	0.005303	-0.111934	-0.037096	-0.070495
-0.000354	-0.009833	0.004373	-0.145571	0.006132	-0.07592
0.001744	-0.00229	0.00626	-0.158372	0.047243	-0.07619
-0.000685	-0.001902	0.008156	-0.157498	0.080262	-0.081229
0.003568	0.003404	0.006432	-0.155346	0.093649	-0.065769
0.003395	0.007323	0.007602	-0.14108	0.095304	-0.061372
0.001	0.004605	0.003794	-0.134818	0.073221	-0.070414
0.00446	0.006898	0.006518	-0.136112	0.052604	-0.055705
0.002189	0.010646	0.003404	-0.135476	0.041242	-0.067372
0.005621	0.008435	0.000396	-0.14336	0.027749	-0.071562
0.005987	0.002002	0.002455	-0.157908	0.026878	-0.058309
3.8e-05	0.005808	-0.00071	-0.165755	0.045723	-0.062943
-0.003864	0.003789	0.00642	-0.173435	0.065357	-0.056356
-0.008375	0.002405	0.002661	-0.179299	0.086905	-0.044346
-0.006957	0.005317	0.001105	-0.175654	0.085827	-0.01914
-0.005753	-0.001881	0.004004	-0.172692	0.080721	-0.006241
-0.006432	0.003256	-0.002687	-0.157384	0.073392	-0.024483
-0.006654	-0.00093	0.003059	-0.147921	0.056402	-0.030967
-0.007394	0.004293	0.001424	-0.14878	0.061152	-0.03171
-0.007441	0.006642	0.004947	-0.155383	0.070106	-0.038755
-0.006694	0.008889	0.007819	-0.161657	0.075285	-0.036551
-0.002303	0.008129	0.007138	-0.164428	0.071047	-0.025707
-0.004401	0.011879	0.008538	-0.161527	0.059887	-0.010338
0.001491	0.01402	0.010756	-0.15845	0.053381	-0.000789
0.009564	0.011654	0.001405	-0.159866	0.055429	0.020613
0.005956	0.013965	0.000597	-0.153445	0.050782	0.013831
0.004448	0.011902	-0.001628	-0.144502	0.025666	-0.011741
0.003741	0.014205	-0.004634	-0.127343	0.010947	-0.01389
0.002987	0.014319	-0.003226	-0.126507	0.024676	-0.009083
4.9e-05	0.012908	0.001164	-0.131725	0.03475	0.003884
0.002155	0.005547	0.006435	-0.150599	0.041866	0.022557
-0.00135	0.007615	0.00651	-0.15066	0.063128	0.008745
0.001498	-0.002063	0.010423	-0.127987	0.071477	-0.028246
0.003071	-2.1e-05	0.013432	-0.115069	0.051375	-0.026915
0.006773	-0.002352	0.00699	-0.106968	0.031998	-0.01368
0.011247	0.00272	0.007693	-0.106497	0.024143	-0.006102
0.009059	0.001361	-0.001098	-0.122399	0.025498	-0.005618
0.003984	0.005297	-0.002007	-0.12159	0.039668	-0.00326
0.006149	0.008423	0.000774	-0.11129	0.045524	-0.006375
0.013368	0.007697	0.002224	-0.099044	0.045595	0.021566
0.010431	0.007749	0.001453	-0.088201	0.030801	0.02181
0.006734	0.003324	-0.002866	-0.07642	0.01802	0.025572
0.006696	0.001796	0.00229	-0.081602	0.000678	0.020048
0.003115	0.003187	0.001581	-0.069951	-0.00081	0.01401
0.002309	-0.000505	0.001627	-0.065569	0.008023	0.033443
-0.001361	-0.001923	-0.004969	-0.0643	0.037097	0.045233
-0.007978	-0.000959	-0.004388	-0.074384	0.054797	0.080886
-0.00585	-0.00166	-0.00588	-0.09093	0.059487	0.101412
-0.009588	3.9e-05	0.007845	-0.091589	0.040394	0.080709
-0.01035	-0.003633	0.006451	-0.071698	0.018284	0.091997
-0.011726	-0.003704	0.007992	-0.047622	0.008384	0.085819
-0.009404	-0.001617	0.012467	-0.044606	0.012905	0.068893
-0.001936	0.001818	0.012594	-0.066485	0.039367	0.084663
0.005468	0.001633	0.009824	-0.089856	0.059271	0.107055
0.003442	0.00748	0.009788	-0.100517	0.065232	0.126498
0.005603	0.005293	0.013489	-0.094998	0.065333	0.144371
0.005697	0.006714	0.009138	-0.093516	0.06977	0.155759
0.004276	0.006677	0.006975	-0.089026	0.065459	0.152939
0.002101	0.00373	0.006326	-0.092681	0.06768	0.148832
-0.000705	0.005157	0.004173	-0.085354	0.059557	0.128113
0.000739	-6.9e-05	0.005793	-0.09893	0.048554	0.110821
-0.000591	-0.000197	0.003724	-0.113549	0.031999	0.115307
0.000255	-0.003268	0.000266	-0.114454	0.040956	0.119414
-0.00105	-0.000432	0.003988	-0.107882	0.055743	0.135565
-0.000954	-0.001336	0.004861	-0.088922	0.078293	0.144614
-0.000782	0.002903	0.007851	-0.083591	0.086753	0.146833
-0.000751	0.001339	0.015264	-0.078384	0.06732	0.136054
-0.002764	0.003339	0.01246	-0.090185	0.053638	0.123842
0.000336	0.00528	0.010428	-0.096173	0.031894	0.096071
-0.005479	-0.001293	0.009119	-0.086996	0.023269	0.073122
-0.00235	0.0007	0.001964	-0.078162	0.021892	0.049462
-0.006585	0.002159	0.00421	-0.081594	0.011193	0.053756
0.000279	0.006904	-0.002156	-0.090027	0.007697	0.055741
-0.005333	0.006052	-0.004157	-0.093714	0.033897	0.072548
-0.010998	0.003807	0.007729	-0.088163	0.052478	0.077771
-0.009913	0.006398	0.012408	-0.081763	0.05779	0.095829
-0.010932	0.009677	0.011276	-0.076559	0.038897	0.098909
-0.005619	0.001958	0.012478	-0.068282	0.030875	0.093983
-0.003633	0.010368	0.008357	-0.061751	0.028644	0.073573
0.004015	0.009312	0.002889	-0.06845	0.031529	0.059219
0.007987	0.009883	0.00023	-0.062945	0.028427	0.04605
0.008313	0.01117	-0.001721	-0.068939	0.025875	0.041458
0.007941	0.014629	0.002158	-0.070545	0.029678	0.04582
0.004587	0.012924	0.008319	-0.072891	0.029735	0.063989
0.006373	0.008805	0.01025	-0.077094	0.028776	0.061077
0.008197	0.009031	0.015774	-0.080028	0.016024	0.055955
0.011463	0.002544	0.009046	-0.080179	-0.01934	0.037528
0.005886	-0.002824	0.01673	-0.083475	-0.041351	0.023262
0.009232	-0.001828	0.012019	-0.074103	-0.040403	0.018405
0.007394	-0.004302	0.005805	-0.059824	-0.013768	0.020875
0.009123	-0.007447	0.006866	-0.042172	0.023498	0.011809
0.000702	-0.008934	0.003447	-0.03748	0.056537	0.005288
-0.001853	-0.009815	-0.000643	-0.032654	0.052392	-0.022051
-0.004363	-0.00851	0.00037	-0.045226	0.013695	-0.014389
-0.00255	-0.011632	0.003677	-0.0631	-0.021756	-0.029277
-0.005771	-0.013251	0.000378	-0.084205	-0.054915	-0.044757
-0.011886	-0.008847	0.007871	-0.080983	-0.073608	-0.039025
-0.004771	-0.004834	0.000224	-0.075925	-0.067064	-0.038772
-0.002841	-0.002122	-0.005313	-0.065845	-0.036856	-0.023212
-0.003953	-0.002203	-0.006522	-0.053326	-0.004487	-0.02172
0.001486	-0.000177	-0.007013	-0.037723	0.026167	-0.020795
0.002514	0.001216	-0.009018	-0.019663	0.059963	-0.025187
0.004255	0.002545	-0.011013	-0.015557	0.072033	-0.041661
0.003793	0.005337	-0.013793	-0.0082	0.057466	-0.057703
0.005297	0.000827	-0.007757	-0.019469	0.021026	-0.040988
0.001129	0.0021	-0.011267	-0.042093	-0.012628	-0.030672
-0.000193	0.00487	-0.000954	-0.052862	-0.027423	-0.034242
-0.002289	0.003212	0.003589	-0.059647	-0.00998	-0.031166
8.1e-05	0.004345	0.005982	-0.054868	0.017702	-0.029695
0.004688	0.009093	0.006875	-0.051309	0.035719	-0.035594
0.00325	0.004569	0.008496	-0.043736	0.03599	-0.050832
0.011367	0.004257	0.009415	-0.03326	0.044176	-0.063403
0.010807	0.009871	0.012386	-0.027768	0.042069	-0.077086
0.009346	0.003744	0.008214	-0.029378	0.043005	-0.068234
0.005695	-9.2e-05	0.006147	-0.052033	0.041078	-0.03265
0.000633	-0.002425	0.004791	-0.098096	0.048067	-0.021334
-0.002277	-0.004765	0.004152	-0.131001	0.035773	-0.015931
-0.010353	-0.009135	0.007849	-0.135628	0.033642	-0.016601
-0.013847	-0.009234	0.006506	-0.120907	0.026516	-0.018512
-0.021042	-0.015044	0.008139	-0.095299	0.00789	-0.032854
-0.017074	-0.013063	0.001792	-0.069258	-0.026444	-0.045598
-0.010964	-0.011664	0.004175	-0.032597	-0.045152	-0.055983
-0.009257	-0.013747	-0.000759	-0.003595	-0.024241	-0.060162
-0.000911	-0.005602	-0.000741	0.001654	0.001725	-0.063484
-0.000645	-0.001689	-0.008782	-0.010223	0.031805	-0.059894
0.000339	0.005174	-0.01105	-0.028057	0.066446	-0.060352
0.002577	0.006207	-0.00746	-0.062797	0.068586	-0.046461
0.000547	0.010825	-0.008271	-0.085187	0.057142	-0.034046
-0.004471	0.01249	-0.008327	-0.108465	0.027123	-0.046993
-0.008697	0.017029	-0.009125	-0.100842	-0.008522	-0.053958
-0.007998	0.013451	-0.007616	-0.078407	-0.015274	-0.053856
-0.01231	0.012809	-0.00833	-0.037227	-0.020832	-0.057425
-0.012213	0.013532	-0.007548	-0.008069	-0.018932	-0.051295
-0.007758	0.013396	-0.010367	-0.005937	0.010289	-0.063298
-0.009085	0.01701	-0.007431	-0.009843	0.045742	-0.060008
-0.008306	0.015444	-0.003667	-0.04922	0.061813	-0.05999
-0.005903	0.020397	-0.000661	-0.095464	0.058537	-0.047775
-0.005106	0.017296	0.002439	-0.13006	0.039609	-0.043848
0.000208	0.021367	0.00698	-0.128219	0.000899	-0.059943
0.003143	0.013713	0.002889	-0.115942	-0.015578	-0.0293
0.006133	0.013495	0.008138	-0.100452	-0.002882	-0.031617
0.010609	0.012467	0.006132	-0.084915	0.018755	-0.024962
0.014373	0.015161	0.009883	-0.1063	0.050041	-0.01464
0.013753	0.011289	0.001323	-0.107078	0.082613	-0.027703
0.01228	0.007607	0.010919	-0.113445	0.088849	-0.038024
0.016147	0.010207	0.00452	-0.104138	0.075388	-0.051193
0.014673	0.004237	0.009073	-0.077291	0.048943	-0.059742
0.01705	0.008428	0.009161	-0.060311	0.011712	-0.073071
0.014218	0.009097	0.010673	-0.053881	-0.006537	-0.087241
0.0172	0.008894	0.010056	-0.05527	-0.012249	-0.093852
0.016438	0.004434	0.012355	-0.068846	-0.009069	-0.092282
0.015111	0.006448	0.006584	-0.072348	0.004307	-0.097755
0.01511	0.004172	0.008856	-0.061924	0.013478	-0.092616
0.010759	0.001953	0.00599	-0.044995	0.026373	-0.099527
0.012974	0.001857	0.005313	-0.029028	0.036447	-0.110455
0.01374	0.003329	0.006766	-0.029742	0.037974	-0.10831
0.006583	0.005606	-0.001297	-0.033499	0.025726	-0.112102
0.003709	0.005648	0.001636	-0.022652	0.00842	-0.128479
0.004476	0.005577	0.005345	-0.012427	-0.002174	-0.130562
-0.000537	0.004729	0.003978	-0.005183	-0.011963	-0.138169
-0.001196	0.00233	0.001208	-0.0027	-0.00852	-0.138441
-0.004089	-0.00144	0.001337	0.00034	-0.00636	-0.141362
-0.004706	-0.000802	-4.4e-05	0.014854	-0.006918	-0.14712
-0.003885	-0.000836	2.8e-05	0.016845	-0.023337	-0.154002
-0.000847	0.000591	-0.003565	0.017371	-0.032469	-0.164186
-0.004355	0.005114	-0.002168	0.026872	-0.037141	-0.159461
-0.007142	0.007417	-0.002178	0.027113	-0.039643	-0.165606
-0.009203	0.007451	-0.002843	0.04445	-0.033251	-0.16313
-0.012565	0.011757	-0.007871	0.041221	-0.033246	-0.158806
-0.00736	0.007182	-0.006894	0.0474	-0.037467	-0.157464
-0.006337	0.012856	-0.006784	0.052688	-0.048841	-0.153543
-0.007023	0.009251	0.005756	0.065233	-0.05373	-0.149603
-0.003931	0.00836	0.006678	0.076482	-0.060242	-0.151055
-0.01024	0.010534	0.008973	0.072808	-0.062082	-0.145228
-0.000442	0.012329	0.004159	0.065358	-0.050647	-0.139427
-0.003946	0.005615	-0.003614	0.058618	-0.042722	-0.13706
0.002068	0.005324	-0.012171	0.063408	-0.042658	-0.134161
-0.0008	0.003189	-0.012846	0.068061	-0.056191	-0.130905
-0.004329	0.006889	-0.011418	0.079189	-0.065866	-0.129249
-0.005821	0.002547	-0.004767	0.087372	-0.079796	-0.12893
-0.002731	0.006037	0.000443	0.09261	-0.091566	-0.127153
-0.001137	0.00578	0.000614	0.09005	-0.091863	-0.131529
0.000509	0.008462	0.005869	0.085035	-0.094895	-0.128494
0.006417	0.004506	0.007577	0.075689	-0.093427	-0.129728
0.006438	-0.003731	0.001984	0.078494	-0.098943	-0.127375
0.012368	-0.001773	-0.003037	0.084825	-0.1007	-0.122552
0.01817	-0.002575	-0.00739	0.084065	-0.106871	-0.124342
0.011536	-0.000193	-0.009763	0.089669	-0.107788	-0.121412
0.013488	-0.00452	-0.010557	0.092147	-0.106328	-0.113333
0.00468	-0.000678	-0.012961	0.087667	-0.112733	-0.120416
-0.000527	0.004596	-0.001504	0.098908	-0.112359	-0.119599
-0.008026	-0.001143	0.000637	0.10212	-0.119013	-0.121582
-0.003861	-0.008575	0.000723	0.097465	-0.12618	-0.132152
0.001091	-0.009357	0.004332	0.103442	-0.118543	-0.134933
0.001892	0.000831	0.00269	0.098386	-0.119447	-0.134688
0.011077	-0.005062	0.003412	0.088856	-0.116508	-0.131984
0.00585	0.000191	-0.000507	0.084449	-0.10321	-0.13247
0.012117	0.002419	0.002185	0.083562	-0.104241	-0.13019
0.007477	0.004034	-0.002476	0.081187	-0.099165	-0.129549
0.002788	0.007865	9.1e-05	0.072653	-0.088056	-0.14665
0.005915	0.000598	-0.000811	0.077997	-0.079508	-0.14116
0.006913	-0.000772	0.004752	0.083524	-0.072963	-0.144497
0.005115	-0.000761	0.000128	0.08022	-0.084281	-0.14721
0.00031	-0.001291	0.006373	0.07689	-0.085163	-0.152226
-0.001517	-0.00118	0.006091	0.068257	-0.082902	-0.152526
-0.000447	-0.002492	0.012415	0.074372	-0.077572	-0.16348
-7e-06	-0.000894	0.015077	0.075937	-0.069889	-0.170429
0.004861	-0.000159	0.011259	0.084061	-0.048293	-0.180462
0.000818	-0.005682	0.013219	0.088797	-0.038837	-0.176199
-0.000765	0.001845	0.009232	0.076001	-0.064858	-0.17285
0.005516	0.002779	0.008255	0.047276	-0.086413	-0.176313
0.011043	0.003702	0.001406	0.015933	-0.091905	-0.166473
0.002687	0.004917	-0.006327	0.005659	-0.064442	-0.164204
0.008866	0.007325	-0.005949	0.013982	-0.04636	-0.155402
0.004109	0.006962	-0.007778	0.027003	-0.026596	-0.140782
-0.003631	0.007359	-0.000903	0.038155	-0.002428	-0.146675
-0.003418	0.000943	0.001788	0.056392	0.005883	-0.155527
-0.005169	0.00244	-0.001386	0.06258	-0.006112	-0.156522
-0.00915	0.00113	0.003489	0.047395	-0.03394	-0.159914
-0.010973	-0.004611	0.003347	0.027374	-0.044151	-0.158001
-0.012626	-0.002263	0.00604	0.001911	-0.067284	-0.156687
-0.006202	0.002156	0.005852	-0.018733	-0.069933	-0.1587
-0.007969	-0.002661	0.010062	-0.036166	-0.062066	-0.132303
-0.007281	0.004053	0.00764	-0.047929	-0.064863	-0.118084
-0.007387	0.0049	0.000928	-0.0473	-0.049292	-0.123109
-0.006125	0.005131	0.00878	-0.041809	-0.021769	-0.108534
-0.010682	0.000929	0.002836	-0.038157	2.4e-05	-0.09265
-0.010104	0.001782	0.006341	-0.041456	0.012208	-0.102055
-0.010528	-0.012606	0.009262	-0.039078	0.004116	-0.093534
-0.007567	-0.0053	0.004003	-0.04712	-0.009792	-0.091659
-0.008479	-0.008029	0.004618	-0.053948	-0.02591	-0.094802
-0.007122	-0.007128	0.001556	-0.070108	-0.029482	-0.091228
-0.007146	-0.002542	-0.00302	-0.077049	-0.019037	-0.095164
-0.001552	-0.006709	0.001266	-0.067446	-0.009759	-0.082232
-0.000956	-0.008019	-0.006155	-0.068379	-0.010507	-0.074768
-0.005527	-0.008364	-0.002744	-0.068758	-0.004737	-0.077446
0.000853	-0.006709	0.003646	-0.071396	-0.009071	-0.063626
-0.002938	-0.004145	0.007027	-0.082291	-0.009059	-0.051114
-0.003045	0.000481	0.008238	-0.086496	-0.012847	-0.053216
-0.004701	-0.000701	0.007315	-0.094692	-0.002827	-0.050791
-0.000424	0.003842	0.005643	-0.096593	-0.001477	-0.0473
0.001482	0.000378	0.000361	-0.106744	0.014429	-0.042362
0.001215	0.001439	-0.001407	-0.109702	0.031722	-0.040582
0.000924	0.003225	-0.00467	-0.110922	0.04095	-0.028829
0.0006	0.002048	-0.007875	-0.103262	0.044101	-0.029282
0.006101	0.003702	-0.003055	-0.11425	0.039097	-0.020778
-0.000766	0.003254	-0.005551	-0.114947	0.030979	-0.023777
0.002709	0.009878	2.7e-05	-0.122608	0.026495	-0.019305
-0.002023	0.006455	0.009302	-0.128792	0.022649	-0.022407
0.0035	0.004259	0.017214	-0.132637	0.018928	-0.012135
0.007634	0.00049	0.007669	-0.140073	0.020289	-0.007603
0.008808	-0.000102	0.00672	-0.140613	0.025993	-0.016663
0.013699	0.00663	0.007846	-0.137182	0.033271	-0.012472
0.010464	0.004742	0.002449	-0.132224	0.031784	-0.015889
0.00941	0.009472	0.010794	-0.121313	0.038215	-0.026852
0.0032	0.003923	0.00251	-0.124733	0.041726	-0.019656
-0.00289	0.008631	0.007232	-0.123711	0.050809	-0.018985
0.00041	0.004297	0.008558	-0.128475	0.054543	-0.025712
-0.00274	0.001468	0.006233	-0.128427	0.052327	-0.021642
3.1e-05	0.003678	0.008279	-0.126206	0.043449	-0.017089
0.002647	8e-05	0.011811	-0.12029	0.031557	-0.018517
0.005393	8.9e-05	0.004377	-0.116066	0.032002	-0.010967
0.002215	-0.000337	0.008501	-0.123107	0.039545	-0.01424
0.004259	0.004272	0.010426	-0.114845	0.048309	-0.015811
0.002596	0.003046	0.007311	-0.118035	0.048105	-0.026451
0.000306	0.009078	0.007032	-0.11117	0.038313	-0.035503
7.8e-05	0.005538	0.002533	-0.111239	0.037182	-0.036203
-0.000802	0.008626	0.006695	-0.113972	0.05247	-0.049363
-0.000379	0.002206	0.01172	-0.117545	0.057439	-0.059063
-0.001969	0.00233	0.009388	-0.111462	0.063167	-0.053561
-0.003395	0.00905	0.00627	-0.117572	0.070022	-0.05992
-0.00061	0.008536	0.008331	-0.108237	0.086864	-0.044848
-0.002062	0.01096	0.00381	-0.095692	0.104841	-0.034834
0.000825	0.011881	0.005915	-0.081327	0.102016	-0.031845
-0.002775	0.012832	0.005115	-0.067309	0.083485	-0.04462
-0.003387	0.015813	0.002175	-0.060556	0.06491	-0.033742
-0.000429	0.012837	-0.005022	-0.05886	0.052079	-0.059042
-0.002101	0.00137	-0.004231	-0.069089	0.044834	-0.052837
-0.006471	0.001563	-0.001374	-0.075557	0.059811	-0.033633
-0.002692	0.008056	-0.005798	-0.069784	0.068244	-0.016644
-0.003449	0.006706	-0.00289	-0.074862	0.061185	-0.002162
-0.004908	0.003854	-0.004312	-0.075259	0.049654	0.025378
-0.001822	0.009639	-0.006504	-0.085154	0.046591	0.052632
-0.001127	0.005997	-0.006441	-0.080699	0.062697	0.065098
-0.002734	-0.000453	-0.002769	-0.07182	0.056424	0.061312
-0.000618	-0.004802	-0.00052	-0.070471	0.037313	0.05254
-0.004211	-0.003991	-0.00127	-0.067799	0.002028	0.054697
-0.00426	-0.006122	0.003855	-0.065646	-0.013627	0.078357
-0.009342	-0.008262	-0.000501	-0.073579	-0.001793	0.082511
-0.003366	-0.000305	0.00091	-0.09041	-0.004476	0.092658
-0.000477	-0.00027	-0.003506	-0.090498	-0.007936	0.093495
0.004514	0.000583	-0.005825	-0.096379	-0.005405	0.10825
0.001463	0.001619	-0.006776	-0.093517	-0.015055	0.120556
0.009272	0.003932	0.000329	-0.083924	-0.001929	0.133149
0.00547	0.004086	-0.000573	-0.083641	0.014846	0.143859
0.004609	0.003378	0.001541	-0.095688	0.019379	0.161323
0.00522	0.003308	0.004412	-0.116651	0.012728	0.16213
0.000719	0.001876	0.005803	-0.117363	0.013418	0.136294
0.001256	-0.000289	0.013039	-0.106561	0.025223	0.130917
-0.002557	-0.003157	0.014429	-0.079826	0.021464	0.097212
0.003195	-0.002504	0.012199	-0.061186	0.01032	0.065737
0.002399	-0.000957	0.006962	-0.073055	0.012936	0.051117
0.000885	0.003657	0.011862	-0.073961	0.024867	0.048691
-0.000652	0.003808	0.006628	-0.077335	0.040427	0.073306
0.003625	0.00534	0.007246	-0.07506	0.052884	0.09698
0.002941	0.012688	0.001225	-0.081742	0.043187	0.097707
0.004173	0.006926	0.004115	-0.080528	0.018243	0.120656
0.007141	0.011955	0.00333	-0.084284	-0.007037	0.106066
0.002726	0.012758	0.011304	-0.083929	-0.023286	0.118207
0.002013	0.009682	0.009238	-0.071153	-0.019067	0.114403
0.003474	0.008857	0.017348	-0.061	-0.006042	0.111894
0.002102	0.007215	0.009444	-0.056126	-0.006891	0.102858
0.005038	0.008543	0.016064	-0.053309	-0.012751	0.106161
-0.002237	0.007882	0.017515	-0.053374	-0.015901	0.094383
-0.002145	0.006994	0.008128	-0.045509	-0.021331	0.091023
-0.00428	0.006265	0.006712	-0.028937	-0.027478	0.092999
0.001735	0.010425	0.001696	-0.017942	-0.022741	0.094126
-0.001306	-0.000472	0.001847	-0.002514	-0.023962	0.081752
-0.002681	-0.002003	0.004156	-0.005872	-0.031823	0.074202
-0.003933	-2.2e-05	0.005776	-0.011166	-0.057194	0.064554
-0.00162	-0.005416	0.008282	-0.018796	-0.077313	0.064078
-0.005742	-0.001952	0.015741	-0.026036	-0.074592	0.074763
-0.004062	-0.005208	0.010953	-0.017001	-0.049944	0.071703
-0.00522	-0.001758	0.010402	-0.01185	-0.029648	0.076562
-0.0093	0.001854	0.010519	-0.011952	-0.018799	0.091535
-0.007	-0.004809	0.007863	-0.0078	-0.03347	0.094373
-0.002378	-0.005709	0.000797	-0.015727	-0.033562	0.101933
-0.003572	-0.001312	0.001598	-0.031152	-0.032419	0.078191
-0.001279	-0.00802	0.000415	-0.036786	-0.047874	0.077932
-0.004628	-0.008874	-0.001529	-0.037154	-0.045089	0.072506
-0.011611	-0.008995	0.0009	-0.025385	-0.035641	0.075925
-0.008375	-0.007877	0.004865	-0.028393	-0.038515	0.068679
-0.008822	-0.008072	0.008782	-0.032299	-0.027435	0.077942
-0.006178	-0.002621	0.002499	-0.029	-0.012064	0.075011
-0.00527	-0.010077	-0.008134	-0.030225	0.002674	0.089324
-0.00149	-0.009295	-0.005868	-0.024903	0.011389	0.089446
0.003168	-0.002844	-0.020423	-0.016808	0.016277	0.086938
0.001731	-0.000504	-0.018317	-0.013937	0.016648	0.085178
-0.004683	0.005389	-0.023516	-0.006615	0.013199	0.076386
-0.00329	0.001635	-0.018311	-0.016345	0.007349	0.046149
-0.007678	-0.001414	-0.011631	-0.026728	-0.002028	0.028745
-0.006229	-0.006846	-0.004818	-0.030075	-0.0111	0.032823
-0.000944	-0.005076	-0.007525	-0.045153	-0.012736	0.025182
0.003472	-0.00522	-0.003045	-0.051526	-0.012427	0.054844
0.010087	-0.003137	-0.008865	-0.046935	0.013274	0.061203
0.01309	0.009342	-0.018634	-0.042767	0.059767	0.0677
0.018659	0.013966	-0.016785	-0.033989	0.093294	0.061073
0.019066	0.022324	-0.00998	-0.033366	0.087642	0.060079
0.010834	0.034918	-0.01197	-0.030727	0.052882	0.0351
0.008792	0.027645	-0.000496	-0.042214	0.024947	0.010756
0.002553	0.026096	0.013914	-0.05794	0.001283	-0.016807
-0.001369	0.01919	0.016174	-0.065267	-0.024238	-0.036856
-0.004394	0.017333	0.014788	-0.074481	-0.023586	-0.018877
0.009892	0.009547	0.014224	-0.075153	-0.011601	0.007847
0.009002	0.010264	0.011901	-0.079161	0.019276	0.028256
0.016946	0.018939	0.010956	-0.091829	0.042386	0.030503
0.010067	0.017811	0.0187	-0.097281	0.051804	0.020261
0.003403	0.022259	0.019216	-0.095541	0.045428	-0.004045
0.006119	0.016175	0.022232	-0.106943	0.019199	-0.025019
-0.006398	0.010946	0.030327	-0.104502	-0.012659	-0.051329
-0.011513	0.003979	0.030589	-0.093608	-0.036622	-0.055141
-0.002124	-0.008967	0.034684	-0.081183	-0.024547	-0.055302
-0.004928	-0.013612	0.03421	-0.072728	0.016411	-0.05548
-0.000235	-0.013259	0.025027	-0.078562	0.044376	-0.06341
-0.00059	-0.008196	0.022248	-0.090806	0.053037	-0.048494
-0.003209	-0.009629	0.017346	-0.097229	0.037218	-0.035817
0.001658	-0.006094	0.006666	-0.108752	0.023884	-0.029413
-0.007282	0.001377	-0.002005	-0.112367	0.004765	-0.026675
-0.01124	-0.001547	-0.015571	-0.103162	-0.025581	-0.046348
-0.013774	-0.005298	-0.023983	-0.074549	-0.04912	-0.040835
-0.012539	-0.005562	-0.0338	-0.033611	-0.050028	-0.02386
-0.010715	-0.009407	-0.035591	-0.015682	-0.013709	-0.029079
-0.013967	-0.012476	-0.041805	-0.017446	0.019549	-0.02623
-0.015891	-0.014034	-0.034976	-0.034396	0.042691	-0.037309
-0.012711	-0.009843	-0.02385	-0.061802	0.047175	-0.03223
-0.009541	-0.008739	-0.030911	-0.082484	0.046914	-0.04043
-0.005058	-0.00455	-0.023547	-0.097358	0.032128	-0.028137
-0.006471	0.000449	-0.022874	-0.091431	0.018915	-0.03909
-0.000834	0.000358	-0.014177	-0.071758	0.001075	-0.054984
0.00542	-0.004875	-0.012012	-0.046212	-0.00235	-0.056481
-0.002015	-0.001092	-0.005671	-0.029581	0.007028	-0.031358
0.000803	0.005398	0.001459	-0.033227	0.037195	-0.028237
0.001321	0.004551	0.002104	-0.050151	0.060896	-0.023997
0.001797	0.004465	0.004888	-0.080401	0.064819	-0.016781
0.005214	0.008003	0.010547	-0.094276	0.057757	-0.011528
0.005752	0.012336	0.01106	-0.09977	0.031235	-0.018777
0.001921	0.01685	0.015168	-0.10111	-0.004867	-0.020994
0.001064	0.021262	0.014964	-0.077375	-0.035543	-0.019017
0.004503	0.0212	0.018513	-0.050311	-0.072344	-0.019277
0.007343	0.024654	0.017711	-0.023544	-0.096974	-0.000649
0.007833	0.016457	0.014132	-0.014784	-0.080838	0.003063
0.007794	0.018434	0.011191	-0.027708	-0.043775	0.008347
0.012731	0.015329	0.014881	-0.048912	-0.014446	0.005818
0.011152	0.00932	0.003271	-0.06642	-0.004405	-0.000889
0.017521	0.00477	0.006977	-0.071032	-0.009008	-0.013728
0.010224	0.009867	0.008298	-0.072349	-0.028783	-0.03511
0.00646	0.005425	0.004668	-0.069735	-0.048262	-0.064557
0.007285	0.014126	0.007474	-0.06998	-0.064447	-0.091508
0.002908	0.013339	0.000905	-0.060077	-0.051213	-0.107121
0.003615	0.0118	-0.001977	-0.043769	-0.0253	-0.105655
0.009347	0.009555	0.00097	-0.027534	0.014425	-0.113864
0.003517	0.010447	0.003082	-0.019068	0.05267	-0.116974
-0.002249	0.01203	0.005233	-0.021251	0.074784	-0.115368
-0.001404	0.014893	0.010389	-0.033017	0.090175	-0.122659
-0.005653	0.014133	0.011953	-0.049048	0.097509	-0.11713
-0.000331	0.01462	0.009249	-0.056704	0.089599	-0.112955
-0.002373	0.01307	0.007209	-0.04835	0.073919	-0.101135
0.002079	0.009268	0.005214	-0.039519	0.062897	-0.101887
0.006427	0.001966	0.007579	-0.027496	0.064561	-0.105772
0.010223	0.001171	0.005536	-0.010608	0.064467	-0.092421
0.006738	-0.000277	0.002738	0.010285	0.06538	-0.082124
0.009939	0.000231	-0.007256	0.013752	0.058453	-0.087004
0.008597	-0.004188	-0.007796	-0.007665	0.044336	-0.094955
0.006505	-0.007848	-0.009844	-0.044825	0.036904	-0.092819
0.001556	-0.004142	-0.008393	-0.074759	0.028757	-0.0938
-0.003403	0.000227	-0.007679	-0.081178	0.036778	-0.083102
-0.00705	-0.000528	0.00112	-0.046796	0.038447	-0.085667
-0.014282	-0.002873	-0.00169	-0.006338	0.028847	-0.085812
-0.018635	-0.005304	0.001366	0.011343	0.011492	-0.089894
-0.021624	-0.009801	0.010966	0.011505	-0.014487	-0.097588
-0.024481	-0.010794	0.009632	-0.001696	-0.013575	-0.094004
-0.016515	-0.014799	0.014941	-0.018955	-0.015073	-0.095433
-0.015733	-0.015746	0.014332	-0.028371	-0.01608	-0.114303
-0.013588	-0.02027	0.021047	-0.025047	-0.01559	-0.120978
-0.013468	-0.02121	0.019747	-0.000276	-0.025224	-0.1146
-0.012553	-0.019965	0.018444	0.043741	-0.038546	-0.12223
-0.00719	-0.01742	0.009898	0.056329	-0.043804	-0.126944
-0.006294	-0.016075	0.005623	0.063699	-0.045388	-0.128748
-0.002558	-0.016835	0.000599	0.060833	-0.039686	-0.129903
-0.007592	-0.016623	-0.005292	0.04136	-0.037693	-0.135027
-0.004567	-0.015712	-0.006746	0.018877	-0.023401	-0.134426
-0.005628	-0.004544	-0.017788	0.025177	-0.008406	-0.119956
-0.000291	0.003783	-0.015699	0.042893	0.00205	-0.122561
-0.002877	0.018059	-0.013009	0.083486	0.007248	-0.134471
0.001742	0.027776	-0.010197	0.092438	7e-05	-0.130887
0.004072	0.030908	-0.010228	0.07453	-0.007271	-0.124794
0.005665	0.036923	-0.003736	0.049084	0.000372	-0.129852
0.010116	0.036899	-0.005859	0.035725	0.018014	-0.117407
0.015224	0.0346	-0.008683	0.046517	0.017388	-0.109443
0.021792	0.035928	-0.013045	0.06789	0.007275	-0.118447
0.028185	0.038101	-0.00733	0.083423	-0.014915	-0.104729
0.025831	0.040386	-0.006068	0.082599	-0.032708	-0.108439
0.020384	0.038343	0.006866	0.072436	-0.032409	-0.114296
0.014938	0.032433	0.014098	0.068934	-0.019017	-0.093827
0.009606	0.027165	0.020686	0.059594	-0.011644	-0.098085
0.007316	0.022488	0.025197	0.053643	-0.032564	-0.09397
0.007335	0.016989	0.018863	0.04148	-0.062246	-0.103714
0.013153	0.012404	0.019039	0.043168	-0.109914	-0.089812
0.018943	0.006524	0.013322	0.036348	-0.13727	-0.084083
0.020581	0.013251	0.002996	0.052523	-0.166414	-0.088284
0.019742	0.00628	-0.003599	0.075809	-0.172544	-0.079085
0.019729	0.00802	-0.002997	0.100421	-0.147281	-0.069554
0.008675	0.003267	-0.0031	0.122635	-0.117563	-0.08648
0.004131	-0.004593	-0.001627	0.13563	-0.099834	-0.093979
0.00321	-0.014698	-0.00375	0.153026	-0.086201	-0.11026
0.006082	-0.016776	-0.00961	0.172616	-0.083234	-0.13316
0.00448	-0.018536	-0.007599	0.195342	-0.096687	-0.1423
0.00227	-0.011469	-0.004272	0.2086	-0.107721	-0.156059
-0.002996	-0.010134	-0.000945	0.221106	-0.106828	-0.175891
-0.00023	-0.011246	-0.003309	0.226718	-0.096075	-0.191971
-0.005362	-0.005792	-0.006503	0.218088	-0.088578	-0.23106
-0.007107	-0.009881	-0.007423	0.219833	-0.07674	-0.235157
-0.007574	-0.017628	-0.006177	0.207765	-0.080492	-0.250552
-0.016044	-0.020769	0.001471	0.202691	-0.067935	-0.261294
-0.0112	-0.020617	-0.008259	0.180484	-0.052943	-0.260481
-0.0115	-0.015782	-0.006517	0.140858	-0.048667	-0.266225
-0.012681	-0.013607	0.00755	0.116475	-0.063716	-0.248681
-0.012171	-0.009518	-0.005272	0.084351	-0.083702	-0.248303
-0.013223	-0.00458	-0.004316	0.06086	-0.091855	-0.25258
-0.01286	-0.003352	-0.001815	0.055521	-0.084451	-0.237196
-0.010229	0.002103	0.001424	0.063184	-0.070357	-0.227566
-0.008442	0.000904	0.000372	0.074714	-0.030674	-0.238271
-0.005063	-0.007243	-0.001759	0.079664	0.015859	-0.233659
-0.007718	-0.006078	-5.2e-05	0.075988	0.033546	-0.220109
-0.003804	-0.002783	0.005306	0.045575	0.004032	-0.230341
-0.007227	-0.005214	0.007785	0.007776	-0.052306	-0.22454
-0.006859	-0.001178	0.010251	-0.033872	-0.081831	-0.224661
-0.00418	0.005661	0.008381	-0.05234	-0.088057	-0.205465
-0.003141	0.006702	0.013099	-0.057349	-0.060734	-0.192913
-0.008701	0.001965	0.013499	-0.040324	-0.012818	-0.180975
-0.001083	-0.003837	0.010438	-0.005531	0.03611	-0.175534
-0.000706	-0.001407	0.021778	0.018655	0.081706	-0.175973
-0.00609	-0.003413	0.016434	0.01454	0.087512	-0.146672
-0.002781	-0.00696	0.016261	0.000348	0.052057	-0.169163
0.00065	-0.005374	0.012382	-0.029543	0.00013	-0.167688
-0.001688	0.003685	0.017086	-0.064852	-0.036502	-0.146845
-0.007774	-0.000354	0.013223	-0.101143	-0.047727	-0.134535
-0.007148	0.002779	0.010082	-0.113862	-0.028917	-0.126876
-0.005182	-0.000603	0.013594	-0.096958	0.020135	-0.106433
-0.013115	0.005485	0.00389	-0.062856	0.074391	-0.094197
-0.006774	-0.000944	0.010455	-0.047089	0.100042	-0.089703
-0.00387	-0.002337	0.000215	-0.03942	0.086787	-0.096717
-0.006107	-0.003494	-0.002088	-0.064196	0.045518	-0.10342
-0.011286	-0.003064	0.002829	-0.081426	0.007566	-0.104866
-0.002425	0.001335	-0.00304	-0.105397	-0.010158	-0.105028
-0.006565	0.012546	-0.008365	-0.124468	-0.019108	-0.101727
-0.001528	0.011268	-0.005494	-0.138832	-0.017733	-0.094061
0.001993	0.007788	-0.001879	-0.138402	-0.003829	-0.079526
0.006395	0.007049	-0.011348	-0.13148	0.021809	-0.068627
0.010667	0.008607	-0.001957	-0.126944	0.036588	-0.052705
0.007663	0.007996	-0.000584	-0.128788	0.053441	-0.046226
0.010302	-0.002218	0.003868	-0.127143	0.037371	-0.039791
0.007251	-0.005077	0.00821	-0.127922	0.020413	-0.032178
0.007127	-0.007303	0.008919	-0.13176	0.006218	-0.024954
0.011448	-0.002264	0.01099	-0.137143	-0.001524	-0.018931
0.007556	-0.007134	0.016708	-0.137268	-0.002039	-0.022786
0.001788	-0.001177	0.006305	-0.145836	0.001224	-0.014432
0.005178	-0.004632	0.014213	-0.146509	-0.00204	-0.005659
0.010114	-0.008213	0.007581	-0.142689	-0.008244	-0.003108
0.008381	-0.011548	0.01469	-0.143523	-0.032531	0.008953
0.005315	-0.013569	0.005784	-0.147874	-0.042268	0.017397
0.003	-0.00967	0.008445	-0.163372	-0.044011	0.013226
0.00419	-0.013781	0.011204	-0.176901	-0.034567	0.023441
0.000472	-0.008355	0.010912	-0.18726	-0.016915	0.028506
-0.005438	-0.002842	0.00985	-0.17985	-0.002706	0.030284
-0.011409	-0.002429	0.0074	-0.173661	0.005716	0.032189
-0.006417	-0.004432	0.001464	-0.160326	0.013086	0.023204
-0.010004	0.005439	0.004798	-0.156821	0.00199	0.013151
-0.006985	0.010655	-0.001874	-0.159766	-0.009248	0.008505
-0.007815	0.008014	0.003156	-0.159028	-0.002318	0.011502
-0.015792	0.008237	-0.001303	-0.154228	0.013978	0.009134
-0.006286	0.011105	0.002349	-0.153113	0.030152	0.018848
-0.007805	0.007571	0.002352	-0.156416	0.03806	0.016724
-0.013449	0.018679	0.00508	-0.15595	0.040897	0.029565
-0.009093	0.016443	0.005147	-0.148081	0.05314	0.036297
-0.007498	0.018621	-0.00066	-0.130416	0.083333	0.02631
-0.008033	0.025322	0.000736	-0.112076	0.098033	0.013395
0.001569	0.026011	-0.001353	-0.092087	0.094135	-0.012331
-0.001162	0.026826	-0.008599	-0.083072	0.088469	-0.022788
0.007082	0.031802	-0.005569	-0.085836	0.097076	-0.020246
0.007948	0.030919	-0.006132	-0.097679	0.096542	-0.018999
0.0058	0.023402	-0.007323	-0.102806	0.088689	0.011572
0.003005	0.021045	-0.002007	-0.106977	0.090017	0.03364
0.00389	0.019311	0.003361	-0.108507	0.077227	0.040045
-0.00029	0.015357	-0.000715	-0.113922	0.054849	0.032549
0.002748	0.008404	-0.001797	-0.116755	0.018863	0.036459
0.00222	0.00958	-0.00013	-0.118664	0.015008	0.034143
0.008122	0.001884	-0.006347	-0.1181	0.019908	0.027305
0.010316	-0.001981	-0.000317	-0.115458	0.021096	0.025648
0.012484	-0.006595	0.004255	-0.118304	0.017063	0.034198
0.011114	-0.0068	0.008044	-0.122541	-0.003224	0.037909
0.009676	-0.011427	0.01044	-0.12217	-0.025302	0.026777
0.008968	-0.01527	0.014269	-0.132783	-0.047555	0.006028
0.006164	-0.016895	0.010037	-0.142291	-0.059301	0.014683
0.001095	-0.020591	0.003561	-0.142341	-0.080128	0.019313
0.01291	-0.012026	0.002085	-0.119686	-0.086848	0.012259
0.012102	-0.014837	-0.00453	-0.083709	-0.06868	0.005847
0.010525	-0.013855	-0.006184	-0.063771	-0.044577	0.012581
0.005265	-0.012065	-0.003525	-0.056322	-0.030646	0.022504
-0.003591	-0.008803	-0.000147	-0.051568	-0.029233	0.029528
-0.008006	-0.005056	0.000424	-0.045517	-0.028187	0.018676
-0.010238	-0.00065	0.005399	-0.031716	-0.041101	0.022001
-0.005953	-0.002152	0.007593	-0.025907	-0.050281	0.027748
-0.003747	0.002956	0.003827	-0.017044	-0.042576	0.030955
0.005674	0.008065	0.004419	-0.0175	-0.019955	0.06318
0.007102	0.019194	0.007737	-0.016073	-0.002321	0.091555
0.012081	0.021436	0.004661	0.004069	0.017243	0.092184
0.006152	0.024563	0.007367	0.014467	0.019136	0.095813
0.006043	0.0267	0.01531	0.003202	0.01008	0.109912
4e-05	0.019203	0.014685	-0.00832	0.010572	0.13043
-0.008001	0.01531	0.016285	-0.018368	0.018466	0.15377
-0.016113	0.004872	0.017254	-0.006375	0.0473	0.152372
-0.020461	-0.001949	0.013843	-0.000299	0.06592	0.165689
-0.024633	-0.003608	0.006021	-0.008625	0.071948	0.16389
-0.030279	-0.007986	0.001118	-0.00928	0.04062	0.131575
-0.025572	-0.006647	-0.005955	-0.00301	0.036501	0.138521
-0.020837	-0.006027	-0.014457	-0.015511	0.004995	0.144896
-0.013311	-0.005311	-0.007693	-0.02885	0.009361	0.156793
-0.00783	-0.001823	-0.012574	-0.03612	0.030565	0.181907
-0.005995	0.005356	-0.00878	-0.036871	0.048609	0.208449
-0.001348	0.00733	-0.005627	-0.031766	0.055927	0.217173
0.005467	0.009161	-0.007562	-0.036648	0.047715	0.21462
0.002639	0.00759	-0.000844	-0.047484	0.034406	0.188774
0.002094	0.009572	-0.001433	-0.047575	-0.003512	0.161055
0.000736	0.006515	-0.001249	-0.0497	-0.0304	0.131643
-0.002024	0.007916	-0.000431	-0.056038	-0.043952	0.112627
-0.000534	0.002696	0.000488	-0.055462	-0.036239	0.111624
-0.002453	0.005462	-0.005207	-0.063515	-0.003821	0.116098
-0.005868	0.008963	3.2e-05	-0.077047	0.026979	0.124965
0.000714	0.000631	0.004752	-0.080012	0.045643	0.115761
-0.005566	0.004096	0.003441	-0.087529	0.046556	0.117035
0.002721	0.005826	0.003016	-0.088504	0.03829	0.094129
0.002053	-0.001676	0.00037	-0.094985	0.026117	0.055175
0.008637	-0.007103	-0.00303	-0.10356	0.013161	0.026942
0.005096	-0.005707	-0.004446	-0.109515	-0.006584	-0.012832
0.012395	-0.006673	-0.003593	-0.129451	-0.011607	-0.019199
0.014672	-0.001772	-0.003579	-0.148221	0.003929	-0.015201
0.008647	-0.011221	0.001612	-0.160606	0.031923	-0.001276
0.00798	-0.006907	0.009625	-0.172689	0.070065	0.009525
0.002902	-0.008457	0.0053	-0.159531	0.093343	0.000745
0.001408	-0.01143	0.004626	-0.13181	0.097993	0.00513
0.006622	-0.003537	0.002372	-0.099503	0.064828	0.003172
0.013193	0.002238	0.003009	-0.080083	0.01375	-0.019101
0.005806	0.002432	0.002126	-0.063348	-0.02994	-0.030894
0.006381	0.000249	0.001339	-0.052524	-0.048564	-0.020216
0.004788	0.00328	0.011385	-0.048443	-0.027783	-6.2e-05
0.002571	0.005421	0.00766	-0.032911	0.004538	0.016445
-0.002058	-0.002575	0.012046	-0.025086	0.034991	0.021864
-0.00059	-0.002067	0.006254	-0.031118	0.05395	0.02867
-0.002834	-1.8e-05	0.01206	-0.042543	0.037309	0.019697
-0.000711	-0.000992	0.014315	-0.057233	0.004921	-0.004674
-0.006564	-0.004026	0.008534	-0.064802	-0.025312	-0.032389
-0.002246	-0.004978	0.007864	-0.06328	-0.035333	-0.040042
-0.006601	-0.005782	-0.006738	-0.051775	-0.028041	-0.063398
-0.008216	-0.010089	-0.009699	-0.035845	-0.004112	-0.082259
-0.012633	-0.004832	-0.010645	-0.015216	0.028468	-0.059281
-0.009925	-0.008425	-0.009981	-0.016363	0.071094	-0.031484
-0.011443	-0.006889	-0.011552	-0.016746	0.10629	-0.021432
-0.011494	-0.004623	-0.005075	-0.031478	0.125598	-0.030445
-0.007102	-0.001039	0.001474	-0.040991	0.094276	-0.039709
-0.008563	-0.001004	0.004385	-0.057424	0.038144	-0.051219
0.000956	0.001031	0.00517	-0.066873	-0.007136	-0.050185
-0.000349	0.009895	0.010154	-0.078624	-0.039705	-0.058762
0.005579	0.014151	0.007242	-0.095042	-0.052508	-0.062498
0.006368	0.021456	0.014431	-0.086297	-0.043214	-0.067994
-0.0023	0.028098	0.021605	-0.063728	-0.006205	-0.061356
-0.004552	0.024985	0.023884	-0.045735	0.034014	-0.04918
-0.003196	0.015854	0.024148	-0.031271	0.062805	-0.06052
-0.002252	0.02128	0.027224	-0.025305	0.071918	-0.079631
-7.1e-05	0.010722	0.028315	-0.042674	0.062422	-0.078589
0.003966	0.016176	0.026387	-0.073869	0.040319	-0.07237
0.00141	0.018197	0.028831	-0.081082	0.023005	-0.088396
0.005525	0.015677	0.023471	-0.114282	-0.013737	-0.081719
0.007613	0.020478	0.022427	-0.108081	-0.018049	-0.084447
0.017738	0.022091	0.017913	-0.081463	-0.018234	-0.082753
0.015431	0.020975	0.014077	-0.058367	-0.022445	-0.073511
0.018133	0.01098	0.00751	-0.037072	-0.037343	-0.065997
0.017334	0.00904	-0.002099	-0.033178	-0.055026	-0.07018
0.009909	0.008128	-0.000902	-0.038306	-0.064534	-0.072091
0.001833	0.010134	-0.004116	-0.038248	-0.059199	-0.064051
0.001049	0.011989	-0.005798	-0.037924	-0.034766	-0.051196
-0.004193	0.009526	-0.006733	-0.028048	-0.002414	-0.05333
-0.010942	0.005641	-0.005487	-0.014068	0.012443	-0.05597
-0.016924	0.003138	-0.007154	0.005994	0.032374	-0.05391
-0.01357	-0.009087	-0.015913	0.012583	0.021773	-0.052575
-0.008653	-0.013278	-0.021129	0.019161	-0.0113	-0.06562
-0.006705	-0.016543	-0.020612	0.027263	-0.0316	-0.072266
-0.001786	-0.013194	-0.018755	0.036316	-0.035456	-0.076345
1.2e-05	-0.017726	-0.011779	0.031648	-0.021701	-0.09487
-0.014004	-0.010296	-0.005064	0.005228	-0.000583	-0.095856
-0.016469	-0.008975	-0.001096	-0.041388	-0.00587	-0.104538
-0.014538	-0.009251	-0.00581	-0.083404	-0.003221	-0.097856
-0.011131	-0.003647	-0.004801	-0.104385	-0.006499	-0.094845
-0.012283	-0.002185	0.002687	-0.098047	-0.007575	-0.089483
-0.01415	-0.006654	-0.008685	-0.066679	-0.012142	-0.079029
-0.012353	-0.005116	-0.00485	-0.029624	-0.013677	-0.075606
-0.009007	-0.003022	-0.008965	-0.002363	-0.013624	-0.071528
-0.00798	-0.001646	-0.003646	0.018294	-0.021557	-0.076007
0.001198	0.003824	-0.006281	0.032665	-0.037443	-0.071597
0.002182	0.005832	0.001217	0.026834	-0.065005	-0.078561
0.002487	0.010735	0.003562	0.01276	-0.085267	-0.078018
0.002794	0.015669	0.008096	-0.006948	-0.096761	-0.086154
0.00669	0.01543	0.010545	-0.010364	-0.077408	-0.082367
0.009206	0.018812	0.010769	-0.001379	-0.043264	-0.086992
0.019041	0.021943	0.007452	0.017972	-0.01686	-0.079371
0.022142	0.018656	0.008499	0.034473	0.003767	-0.083384
0.022408	0.018987	0.002927	0.042342	0.001014	-0.099426
0.026875	0.014221	0.00176	0.036417	-0.006106	-0.094411
0.024134	0.013969	-0.001715	0.021972	-0.008363	-0.098873
0.021342	0.015985	0.004217	0.006999	-0.013777	-0.111171
0.011975	0.014418	0.004329	-0.000922	-0.009075	-0.118768
0.009917	0.014153	0.010345	-0.00708	0.003013	-0.116937
0.004908	0.008007	0.008426	-0.001607	0.010816	-0.122745
0.004393	0.008382	0.012318	0.007207	0.026756	-0.126128
0.005955	0.001423	0.009736	0.01021	0.032779	-0.113251
0.008358	0.001067	0.005603	0.024105	0.036765	-0.111036
0.009948	4.1e-05	0.00141	0.028313	0.031493	-0.111227
0.012212	-0.00314	-0.008631	0.041988	0.027784	-0.120028
0.008597	-0.002395	-0.010108	0.060307	0.019148	-0.118683
0.01012	0.0042	-0.00583	0.061534	0.010535	-0.137538
0.004963	0.001304	-0.010213	0.065106	0.002031	-0.138359
-0.002252	0.007201	-0.005216	0.068063	-0.015155	-0.147552
-0.003698	0.008635	0.006473	0.064246	-0.023526	-0.151503
-0.002874	0.006238	0.009579	0.07536	-0.025187	-0.14689
-0.007702	0.008986	0.008265	0.096855	-0.012251	-0.153049
-0.005334	0.008089	0.016511	0.110332	0.002105	-0.158289
0.002919	0.005511	0.008077	0.123417	0.010101	-0.153664
0.002343	0.004046	0.005284	0.130099	0.005771	-0.157862
0.007622	0.007701	0.000939	0.126901	-0.011	-0.173924
0.011368	0.012238	0.000135	0.128622	-0.031469	-0.181335
0.005647	0.01614	-0.006557	0.129667	-0.052743	-0.189041
-0.001612	0.017179	-0.002279	0.133513	-0.056614	-0.19077
-0.007266	0.020124	-0.004451	0.135288	-0.048939	-0.194798
-0.012971	0.016426	-0.001358	0.132425	-0.030326	-0.188053
-0.013606	0.0082	0.001145	0.133185	-0.018235	-0.181584
-0.011997	-0.000834	-0.002123	0.12447	-0.023611	-0.173986
-0.006626	-0.004074	-0.006157	0.114358	-0.034813	-0.168565
-0.007121	-0.007068	-0.01177	0.106603	-0.046793	-0.169064
-0.004041	-0.01001	-0.013041	0.095218	-0.051621	-0.166292
-0.007485	-0.006139	-0.00502	0.085994	-0.047049	-0.161013
-0.011646	-0.00377	-0.006462	0.082808	-0.026509	-0.164215
-0.01151	-0.002969	-0.004215	0.093208	-0.01239	-0.161025
-0.012826	-0.002228	-0.004147	0.106516	-0.002558	-0.160211
-0.014989	-0.008061	-0.004004	0.115478	0.003704	-0.162543
-0.007589	-0.006704	-0.003911	0.103923	-0.013195	-0.162494
-0.000267	-0.007454	-0.00604	0.093192	-0.041724	-0.167937
0.002595	-0.01096	-0.006025	0.077801	-0.060764	-0.163342
0.007684	-0.012307	-0.011141	0.072143	-0.059486	-0.170709
0.010607	-0.006248	-0.011329	0.076166	-0.040628	-0.161716
0.006911	-0.00155	-0.01084	0.081481	-0.028866	-0.153006
0.008188	-0.001342	-0.00809	0.091995	-0.016252	-0.155275
0.00579	-0.001053	-0.001005	0.0935	-0.012922	-0.153674
0.002007	0.005081	0.009646	0.083166	-0.032048	-0.150227
0.004735	0.005916	0.013873	0.062176	-0.053761	-0.143454
0.006787	0.008865	0.01225	0.035998	-0.090018	-0.138461
0.012293	0.003794	0.013625	0.002965	-0.102222	-0.128212
0.011983	0.0025	0.01633	0.002313	-0.079484	-0.108524
0.014633	0.00407	0.015364	-0.002792	-0.058839	-0.092606
0.011301	-0.001517	0.012211	0.00025	-0.040959	-0.094275
0.012477	-0.001347	0.006853	0.01123	-0.027709	-0.083718
0.009333	0.004053	0.011609	0.019303	-0.001866	-0.089534
0.00624	0.005713	0.008459	0.027689	0.019131	-0.095561
0.00956	-0.002978	0.006974	0.034259	0.059869	-0.10313
0.005058	0.000175	0.014055	0.040034	0.070647	-0.12452
-0.000897	-0.002616	0.012521	0.023117	0.01517	-0.131076
-0.008943	-0.001721	0.009483	-0.010975	-0.044647	-0.14492
-0.006133	-0.005371	0.004382	-0.030993	-0.087405	-0.138399
-0.008332	-0.000816	0.005676	-0.04287	-0.087645	-0.129982
-0.00988	0.00014	0.004061	-0.049573	-0.080977	-0.11544
-0.008434	0.006178	0.004592	-0.038047	-0.053705	-0.119913
-0.01371	-8.6e-05	0.001593	-0.013115	-0.01952	-0.098265
-0.012268	-0.001413	0.000117	-0.007463	0.020306	-0.103966
-0.010039	-0.000558	0.001559	0.000116	0.040944	-0.108681
-0.012101	0.000967	-0.001346	0.009484	0.032974	-0.110103
-0.017847	-0.000299	-0.001331	0.000871	0.010912	-0.107118
-0.019896	-0.000211	-0.004201	-0.010003	-0.0223	-0.118399
-0.016127	0.000557	-0.004868	-0.026638	-0.056216	-0.120495
-0.010893	0.002768	-0.007752	-0.034392	-0.067362	-0.112907
-0.005729	0.002825	-0.012837	-0.039599	-0.066529	-0.101843
-0.008674	0.003834	-0.010772	-0.035675	-0.060315	-0.087035
-0.00646	0.007676	-0.007964	-0.031801	-0.039393	-0.079454
-0.000623	0.008453	-0.008707	-0.035978	-0.020518	-0.079178
-0.005015	0.007173	-0.006558	-0.046396	0.012227	-0.071476
0.000219	0.012198	-0.002157	-0.068451	0.043369	-0.071525
0.002996	0.006945	0.000852	-0.093282	0.054751	-0.059252
0.007188	0.000283	0.006049	-0.112476	0.044091	-0.054622
0.007819	-0.000479	0.008941	-0.128408	0.002029	-0.054763
0.008395	-0.002617	0.013269	-0.132645	-0.028301	-0.048261
0.00766	0.004747	0.017464	-0.12051	-0.045168	-0.042088
0.01122	0.005478	0.015204	-0.127661	-0.044886	-0.032225
0.009524	-0.000954	0.012225	-0.131381	-0.029747	-0.025929
0.010877	-0.000897	0.004089	-0.141309	-0.019419	-0.017469
0.007843	0.001559	0.002404	-0.140855	-0.009745	-0.023118
0.014959	-0.000538	0.002332	-0.138837	0.00226	-0.013944
0.007634	0.006323	0.002774	-0.141842	0.009173	-0.014053
0.006681	0.002049	0.004888	-0.154288	0.011724	-0.017081
-0.002295	-0.001433	0.012063	-0.154566	0.018781	-0.013197
-0.004655	-0.0066	0.012811	-0.146514	0.010746	-0.000173
-0.001169	-0.010338	0.013561	-0.133939	0.007017	0.000223
-0.003503	-0.015392	0.012094	-0.121414	0.013398	-0.003389
-0.007253	-0.014391	0.017768	-0.114136	0.005928	-0.004579
0.000818	-0.010697	0.006016	-0.125925	-9.1e-05	0.004844
0.003591	-0.009537	0.009437	-0.126583	-0.00397	0.012555
-0.004282	0.001918	-0.00408	-0.131223	-0.0027	0.017259
-0.002122	0.011129	-0.001512	-0.120878	0.008047	0.015148
-0.005884	0.011561	-0.00686	-0.121392	0.022537	0.02155
-0.004514	0.013249	-0.011413	-0.111126	0.039206	0.016727
-0.003907	0.012669	-0.012255	-0.104933	0.06222	0.013674
-0.006108	0.017948	-0.011713	-0.102297	0.081293	0.019904
-0.00852	0.013004	-0.010338	-0.105345	0.102051	0.007837
-0.013803	0.009565	-0.009722	-0.099176	0.117269	-0.006097
-0.011003	0.010348	-0.001773	-0.097578	0.127019	-0.017254
-0.005204	0.010211	-0.001735	-0.088524	0.127128	-0.017429
-0.000878	0.013866	0.012067	-0.068241	0.123483	-0.017507
-0.001591	0.01386	0.010613	-0.040587	0.109486	-0.017416
0.002082	0.014527	0.008449	-0.027537	0.09744	-0.013281
0.002951	0.023336	0.008323	-0.031219	0.092424	0.002088
0.005073	0.021158	0.004673	-0.05871	0.089888	0.00171
0.008739	0.021809	-0.002615	-0.082301	0.076304	0.006476
0.005737	0.020415	0.000261	-0.089538	0.06266	0.007126
0.004161	0.013804	0.002542	-0.09842	0.049108	0.017658
0.001265	0.01291	0.007007	-0.095499	0.046491	0.022409
0.000566	0.007509	0.007238	-0.097752	0.047531	0.025376
0.003504	-0.000893	0.001711	-0.093861	0.058681	0.017426
0.006353	-0.006147	0.010624	-0.09333	0.049478	0.028981
0.005669	-0.007648	0.007039	-0.094519	0.033296	0.019731
0.002037	-0.008304	0.003371	-0.085673	0.017467	0.036626
0.006415	-0.007618	0.001187	-0.077065	-0.000459	0.030809
0.003468	-0.006825	-0.001807	-0.079005	-0.027537	0.03754
0.006273	-0.010524	-0.0047	-0.086304	-0.058707	0.024103
-0.001855	-0.013222	-0.004065	-0.101281	-0.086057	0.020996
0.000935	-0.016857	-0.002596	-0.11359	-0.112938	0.017168
0.000111	-0.015966	0.003126	-0.117923	-0.101478	0.032996
0.002319	-0.008606	0.006616	-0.117584	-0.077332	0.030746
0.0052	-0.003387	0.010838	-0.112802	-0.044954	0.051436
0.001567	0.003386	0.009885	-0.103052	-0.010059	0.053549
0.00434	0.004994	0.010448	-0.075176	0.005245	0.035694
0.007774	0.003652	0.008118	-0.060565	0.001259	0.035414
0.009976	0.011786	0.004251	-0.057724	-0.020461	0.048972
0.003223	0.009903	0.005522	-0.056307	-0.037976	0.067636
0.006057	0.011381	0.002506	-0.052527	-0.054658	0.090469
0.003032	0.012165	0.003854	-0.034648	-0.0575	0.098184
3.9e-05	0.015835	0.011754	-0.017229	-0.046535	0.093415
0.002105	0.009033	0.007515	-0.006559	-0.038944	0.093995
0.002017	0.005977	0.009763	-0.003526	-0.031929	0.079614
0.004219	0.002755	0.007748	0.005008	3.9e-05	0.071609
0.001182	0.000685	0.019385	0.002193	0.016873	0.055257
-0.000222	0.002081	0.014278	-0.00546	0.028634	0.046126
-0.004542	0.005039	0.015685	-0.018879	0.021417	0.045785
-0.006814	-0.000137	0.011371	-0.033358	-0.003691	0.069961
-0.002404	0.001186	0.009952	-0.040058	-0.003944	0.086081
-0.001648	-0.000384	0.002721	-0.033593	-0.004184	0.089457
-0.005221	0.001144	0.003436	-0.027466	0.004416	0.100823
-0.002951	-0.000409	0.001365	-0.031714	0.01082	0.112084
-0.003486	0.001645	-0.00071	-0.040965	0.020027	0.118428
-0.004145	-0.0014	0.003835	-0.039867	0.010147	0.11235
-0.004083	-0.003759	0.006909	-0.044656	-0.000632	0.09993
-0.003946	-0.004004	0.004883	-0.044953	-0.020847	0.097246
-0.005858	0.003079	-0.000899	-0.047095	-0.033744	0.092325
-0.008057	-0.001323	0.002125	-0.0487	-0.031884	0.104702
-0.004286	0.001514	0.005106	-0.042261	-0.011721	0.125914
-0.006317	0.002918	0.002991	-0.041575	0.002552	0.137774
-0.001125	-0.000233	0.002475	-0.041668	0.013145	0.149905
-0.003229	-0.001022	0.009881	-0.04289	0.011252	0.153711
-0.001466	0.005264	0.009291	-0.041784	0.003618	0.161444
0.000787	-0.000102	0.011739	-0.042641	-0.001857	0.146085
-0.001829	0.005574	0.011113	-0.040952	-0.005035	0.127981
-0.003904	0.003315	0.014183	-0.033869	-0.003807	0.102836
-0.002073	0.010402	0.007011	-0.034166	-0.007685	0.076185
-0.004792	0.009583	0.002055	-0.037181	-0.016474	0.079188
0.003467	0.010052	-0.000624	-0.054505	-0.021531	0.083138
0.00071	0.009278	0.003165	-0.057121	-0.004677	0.099726
0.00028	0.011991	0.001162	-0.055951	0.020807	0.106328
-0.002478	0.00747	0.006529	-0.054751	0.04253	0.111698
-0.001324	0.010692	0.003935	-0.063859	0.049474	0.098945
-0.005551	0.00098	0.011631	-0.069528	0.046024	0.075657
0.002287	0.003995	-0.001048	-0.07469	0.034414	0.05912
0.000428	0.003089	0.002163	-0.071758	0.023403	0.051558
0.008053	0.002791	-0.00482	-0.080798	0.002839	0.040743
0.006765	-0.000929	-0.009728	-0.076845	-0.002453	0.019048
0.009241	0.004079	-0.011082	-0.074605	0.001379	0.019905
0.005691	0.001902	-0.007323	-0.064082	0.022766	0.014683
0.002286	0.000972	-0.013684	-0.055108	0.039642	0.001347
0.002361	-0.005117	-0.00903	-0.05748	0.043875	-0.017257
0.00117	-0.002548	-0.013209	-0.065573	0.044974	-0.011878
-0.006031	-0.004101	-0.006523	-0.068006	0.038525	-0.003328
-0.002434	-0.010927	0.001007	-0.072461	0.02592	0.000967
-0.008084	-0.005961	0.008353	-0.05403	0.013658	-0.007085
-0.011507	-0.001076	0.010634	-0.042991	0.00694	-0.013803
-0.005555	-0.00366	0.010902	-0.04286	-0.008575	-0.017326
-0.001052	-0.004754	0.007468	-0.049995	-0.015853	-0.012927
0.002699	-0.003544	0.009056	-0.057642	-0.017671	0.011839
0.000582	-0.003682	0.004013	-0.056667	-0.007855	0.014568
0.003587	-0.001623	0.002606	-0.056964	0.003391	0.019132
0.000632	-0.005296	0.001931	-0.041392	0.001215	0.013235
-0.001966	0.006273	-0.002498	-0.035284	-0.002718	0.019504
-0.003477	0.003341	0.007781	-0.030917	-0.004017	0.027783
-0.004077	0.004653	0.007874	-0.03507	-0.009929	0.021758
-0.000332	0.004484	0.012393	-0.037628	-0.022566	0.003026
0.003449	0.004261	0.010366	-0.041431	-0.035271	-0.01327
0.003759	0.012147	0.008231	-0.057032	-0.04868	-0.024505
0.003936	0.011263	0.001824	-0.067844	-0.041635	-0.030359
0.009926	0.012524	-0.001687	-0.075397	-0.026395	-0.027321
0.00938	0.016811	-0.003106	-0.080519	0.001175	-0.034176
0.009375	0.015287	0.005726	-0.07672	0.027043	-0.042486
0.003708	0.019561	0.004282	-0.072136	0.050424	-0.048726
0.002334	0.020158	0.008015	-0.064543	0.06113	-0.05356
0.005345	0.01763	0.005312	-0.058978	0.067168	-0.061518
0.000445	0.020324	-0.000426	-0.055546	0.060582	-0.072585
0.000478	0.014989	0.003441	-0.058654	0.059587	-0.087674
0.000618	0.013993	0.002165	-0.064037	0.052104	-0.084206
-0.002307	0.005864	0.006026	-0.064269	0.046181	-0.07436
-0.00276	0.009962	0.000332	-0.056782	0.050312	-0.070925
0.002499	0.005899	-0.00666	-0.055415	0.063748	-0.067739
-0.002464	0.006486	2.7e-05	-0.054277	0.079861	-0.061702
0.002802	0.003835	-0.008444	-0.049761	0.086089	-0.073715
-0.002293	-0.000571	-0.003955	-0.047762	0.076851	-0.077129
-0.002883	2e-05	-0.004574	-0.047684	0.060288	-0.072735
-0.007133	0.000703	0.001344	-0.056244	0.034846	-0.083161
-0.007636	0.002689	0.001499	-0.059614	0.016092	-0.087854
-0.015549	-0.003204	0.003889	-0.069628	0.012923	-0.082163
-0.009285	0.003655	-0.006095	-0.068699	0.016493	-0.067681
-0.00707	-0.005274	-0.004353	-0.067172	0.033048	-0.056934
-0.004871	-0.009764	-0.002009	-0.069848	0.0391	-0.05424
-0.009837	-0.008247	-0.004182	-0.074162	0.023857	-0.047225
-0.003759	-0.002594	-0.009938	-0.087248	-0.004557	-0.041408
-0.001359	0.004681	-0.008489	-0.078844	-0.024153	-0.024695
-0.004234	0.004029	-0.001161	-0.065199	-0.053926	-0.039167
-0.004688	0.008969	-0.00837	-0.045528	-0.058546	-0.042083
0.001065	0.001593	-0.003088	-0.018076	-0.042518	-0.043478
0.005496	0.00221	-0.001557	-0.009513	-0.033783	-0.049488
0.015203	0.011456	-0.002987	-0.010611	-0.029507	-0.048924
0.010056	0.010839	0.005001	-0.022444	-0.016692	-0.051487
0.008694	0.010715	-0.003687	-0.049677	-0.008397	-0.044996
0.007967	0.012907	0.007238	-0.070524	-0.014944	-0.055081
0.010309	0.018527	0.008007	-0.077297	-0.017083	-0.05596
0.004347	0.007536	0.006705	-0.057754	-0.005906	-0.051626
0.008734	0.003671	0.001753	-0.037823	-0.001865	-0.050666
0.004303	0.000819	0.003212	-0.018096	0.010202	-0.058074
0.008738	0.003634	-0.000429	-0.011716	0.027297	-0.069754
0.010176	0.005898	0.000222	-0.017584	0.042131	-0.070364
0.010139	0.008169	0.003051	-0.030137	0.033555	-0.07993
0.012216	0.005278	0.004509	-0.060077	0.036619	-0.084039
0.007888	0.008186	0.001533	-0.081821	0.032496	-0.088579
0.013714	0.009453	0.001571	-0.085757	0.024848	-0.10054
0.017941	0.00863	0.006657	-0.06534	0.023271	-0.093443
0.014312	0.015216	0.007231	-0.043933	0.018985	-0.093128
0.009778	0.017522	0.015809	-0.038283	0.018528	-0.097765
0.006075	0.022635	0.018567	-0.031219	0.018345	-0.095272
0.004471	0.018858	0.01932	-0.035518	0.017626	-0.095371
0.005119	0.01431	0.018689	-0.034305	0.011923	-0.099814
0.002927	0.012743	0.018012	-0.025264	0.007067	-0.113546
0.00578	0.005349	0.013786	-0.024072	-0.001193	-0.121014
0.003704	0.005415	0.002855	-0.029722	-0.001288	-0.130334
0.012477	0.006186	-0.001519	-0.023494	-0.005595	-0.131577
0.012514	0.010067	-0.007501	-0.027735	-0.021363	-0.133276
0.005866	0.008883	-0.009822	-0.026944	-0.030416	-0.1438
0.002904	0.009014	-0.006974	-0.018979	-0.03337	-0.132558
0.001362	0.005383	-0.002563	-0.000313	-0.023301	-0.146312
0.000574	0.000925	0.000448	0.029524	-0.016095	-0.145841
-0.003803	-0.002141	-0.005313	0.051873	-0.017554	-0.142277
-0.004649	-0.007406	-0.002301	0.064249	-0.029137	-0.152923
-0.000249	-0.007621	-0.007329	0.059638	-0.031191	-0.157902
0.003131	-0.012688	-0.007384	0.056946	-0.031009	-0.156222
0.002252	-0.006682	-0.009131	0.060763	-0.019197	-0.155748
-0.003051	0.000946	-0.004421	0.078209	-0.010208	-0.151767
-0.006982	0.002687	0.001118	0.091654	-0.007892	-0.163276
-0.008582	0.008642	0.005242	0.110773	-0.004738	-0.173652
-0.010239	0.007233	0.002199	0.119498	-0.0036	-0.180016
-0.01046	0.006542	0.009377	0.112298	-0.006714	-0.192702
-0.009966	-0.000125	0.010139	0.105823	-0.016236	-0.208392
-0.005686	-0.001049	0.011629	0.10987	-0.029921	-0.211557
0.000114	-0.001994	0.008049	0.116145	-0.046429	-0.217773
0.007295	-0.006504	-0.002104	0.121929	-0.068054	-0.232235
0.01	-0.007033	-0.00813	0.123983	-0.064923	-0.242984
0.009767	5e-06	-0.001986	0.12792	-0.057397	-0.241961
0.005205	0.007733	-0.003151	0.130152	-0.055643	-0.229541
-0.011093	0.009046	-0.001368	0.114613	-0.06477	-0.232042
-0.010627	0.005488	-0.001481	0.108574	-0.074603	-0.234527
-0.015914	0.007891	0.008513	0.100774	-0.0801	-0.221387
-0.008071	0.005524	0.006332	0.105718	-0.070403	-0.219859
-0.002385	0.00474	0.009947	0.101219	-0.064993	-0.218015
0.003294	0.000349	0.00997	0.110341	-0.052866	-0.208684
0.00105	0.001937	0.011317	0.10199	-0.056566	-0.19895
0.001755	0.004908	0.008293	0.089255	-0.065911	-0.188474
0.001638	0.007999	0.011025	0.08126	-0.069372	-0.191625
-0.000714	0.007456	0.005748	0.077985	-0.074161	-0.17946
-0.005384	0.003374	0.005551	0.079341	-0.060735	-0.177648
-0.003379	0.000545	-0.001107	0.084008	-0.05236	-0.192774
-0.005719	0.000765	0.001646	0.085932	-0.028453	-0.189337
-0.013114	-0.00265	-0.001359	0.085003	-0.028399	-0.190256
-0.010245	-0.006322	-0.004948	0.08176	-0.028808	-0.190291
-0.011097	-0.012702	0.00092	0.070274	-0.052258	-0.185295
-0.010915	-0.008899	-0.001287	0.062282	-0.069004	-0.178796
-0.001283	-0.005217	-0.00198	0.046612	-0.08622	-0.163027
0.000238	0.000163	0.002989	0.026059	-0.082214	-0.162243
0.001679	0.000387	0.002916	0.019219	-0.061707	-0.141464
0.003179	0.005706	0.00423	0.018439	-0.041785	-0.138931
-0.000569	0.006051	0.007706	0.024604	-0.022392	-0.132896
0.005903	0.006133	0.011303	0.035112	-0.016646	-0.136433
0.002199	0.007054	0.013374	0.036	-0.023786	-0.145423
0.005056	0.004926	0.009717	0.036392	-0.038737	-0.146563
0.00436	0.010975	0.011733	0.020317	-0.067206	-0.113744
0.004918	0.003125	0.005168	-0.023256	-0.100064	-0.127552
0.008505	0.002572	0.001446	-0.043905	-0.102819	-0.112486
0.006985	0.003612	0.00129	-0.04666	-0.084357	-0.096073
0.009106	0.006734	0.007711	-0.031709	-0.042512	-0.070111
0.005388	0.005408	0.006912	-0.010584	-0.021029	-0.067956
0.008246	0.004641	0.009107	0.016094	-0.008799	-0.070491
9.3e-05	-0.00185	0.007659	0.026721	-0.002222	-0.088252
0.002953	-0.002699	0.008416	0.025957	0.005875	-0.101508
0.003516	-0.007807	0.008427	0.012683	0.00518	-0.121906
0.002689	-0.005471	0.009728	-0.020949	-0.000503	-0.128829
0.005429	-0.00828	0.004532	-0.0517	-0.027731	-0.125996
0.004614	-0.005107	-0.001528	-0.084362	-0.078644	-0.130758
0.00226	-0.005479	-0.003201	-0.114204	-0.099303	-0.128316
-0.000809	-0.004405	-0.001969	-0.129014	-0.076441	-0.110316
-0.003801	-0.002733	-0.003591	-0.128505	-0.02324	-0.091547
-0.001798	-0.006286	9e-06	-0.107744	0.043484	-0.071271
-0.002634	-0.008383	0.002154	-0.092765	0.084902	-0.054084
-0.003295	-0.001786	-0.000161	-0.087846	0.088096	-0.061715
-0.004898	-0.002332	0.004091	-0.097036	0.059593	-0.076239
-0.006533	-0.002834	0.007576	-0.09316	0.02578	-0.080651
-0.005871	-0.001259	0.003073	-0.088999	0.004215	-0.084527
-0.011774	0.003451	0.000608	-0.088722	-0.017392	-0.089834
-0.014097	0.003693	-0.006151	-0.091163	-0.019166	-0.084569
-0.009203	0.000215	-0.008438	-0.079865	-0.006159	-0.090727
-0.006412	0.004041	-0.005724	-0.067761	0.012167	-0.086635
-0.009532	-0.000166	-0.002891	-0.059101	0.031187	-0.075653
-0.0111	-0.000842	0.005815	-0.047065	0.043372	-0.063241
-0.009664	-0.001716	0.005134	-0.037305	0.039113	-0.053745
-0.008339	-0.007528	0.004446	-0.034998	0.037248	-0.036559
-0.008471	-0.008764	0.009447	-0.046559	0.031925	-0.036861
-0.004082	-0.003505	0.004913	-0.064002	0.025739	-0.027879
-0.005616	-0.001665	-0.001149	-0.08503	0.013765	-0.014783
-0.003457	0.003789	-0.009439	-0.093947	-0.000238	-0.019736
0.001466	0.004868	-0.009669	-0.088526	0.002176	-0.015332
-0.001687	0.001575	-0.013522	-0.085933	0.006213	-0.011833
-0.004905	-0.001	-0.006451	-0.083048	0.013585	-0.01727
-0.002076	0.004914	-0.006661	-0.07838	0.024797	-0.035606
-0.005387	-0.001446	0.001207	-0.075796	0.022616	-0.034212
-0.005577	0.002391	0.008255	-0.092286	0.020179	-0.026876
0.000795	0.003128	0.004469	-0.114579	0.025708	-0.017277
0.011485	0.006133	0.013025	-0.13718	0.031422	0.001198
0.008565	0.018755	0.009728	-0.149096	0.039535	0.02014
0.012732	0.019672	0.012453	-0.151448	0.046979	0.028739
0.014018	0.022022	0.014436	-0.137438	0.05358	0.025052
0.009553	0.025059	0.011329	-0.1228	0.051176	0.004432
0.013762	0.025743	0.016352	-0.113378	0.037722	-0.004925
0.013504	0.019141	0.014879	-0.112653	0.027744	-0.015419
0.012805	0.024154	0.006754	-0.115642	0.02268	-0.025397
0.012591	0.021285	0.013252	-0.125335	0.038766	-0.01108
0.008052	0.014777	0.011067	-0.132145	0.051057	-0.004024
0.004297	0.008941	0.00819	-0.144519	0.057449	0.015133
0.005852	0.008086	-0.002664	-0.145809	0.044885	0.025595
0.002844	0.000885	-0.000397	-0.130854	0.028058	0.025793
-0.001436	0.003133	0.001779	-0.123039	0.020084	0.020164
-0.001483	-0.005655	0.001232	-0.118896	0.015913	0.014616
0.001545	-0.005028	0.00133	-0.125169	0.024234	0.0163
-0.000723	-0.00858	0.007181	-0.138765	0.040394	0.01619
-0.000779	-0.012175	0.005748	-0.140457	0.050441	0.029593
-0.002201	-0.012087	-0.00158	-0.125395	0.051887	0.037301
-0.002316	-0.013983	0.006355	-0.101882	0.035223	0.028202
0.005017	-0.011726	0.00194	-0.077635	0.007446	0.023401
0.002764	-0.013655	-0.003997	-0.084119	-0.02251	0.005736
0.004226	-0.009746	-0.010746	-0.092939	-0.018629	-0.000514
-0.001609	-0.000502	-0.008196	-0.108438	-0.009989	-0.001185
-0.001003	0.001973	-0.009151	-0.123278	-0.015499	0.00251
-0.009099	0.008262	-0.001453	-0.116633	-0.022003	0.03513
-0.011375	0.006977	-0.002272	-0.081657	-0.007577	0.055169
-0.013661	0.002629	-0.00152	-0.056489	0.007926	0.069923
-0.013589	0.006166	-0.002254	-0.025547	0.020728	0.063149
-0.010789	0.000179	-0.005068	-0.013275	0.005606	0.056704
-0.008017	-0.000526	0.001441	-0.008254	-0.025437	0.055562
-0.000113	0.000176	0.003574	-0.006318	-0.051764	0.0602
0.001321	0.003938	-0.00022	-0.02352	-0.070626	0.058023
0.004955	0.012116	0.006135	-0.044203	-0.04595	0.049693
-0.00021	0.013844	0.011084	-0.060072	1.7e-05	0.059946
0.001146	0.011675	0.017653	-0.048162	0.028806	0.066045
0.003321	0.009265	0.016308	-0.037951	0.031245	0.035741
0.00411	0.011265	0.020752	-0.02525	0.035154	0.048458
0.01147	0.013065	0.017963	-0.035925	0.017649	0.031762
0.015794	0.008392	0.013013	-0.051819	0.00026	0.031485
0.013716	0.012649	0.004231	-0.064227	-0.013914	0.044657
0.0142	0.000952	0.002153	-0.07208	-0.016539	0.027229
0.009804	0.003227	0.004975	-0.073177	-0.017808	0.025318
0.00697	0.005282	0.00062	-0.06212	0.001388	0.039389
0.004004	2.2e-05	0.004407	-0.055313	0.014707	0.045261
0.003883	-0.009722	0.009754	-0.028423	0.033615	0.041607
0.000361	-0.008585	0.009162	-0.012384	0.050613	0.021455
0.001079	-0.012515	0.014455	-0.02835	0.05268	0.019345
0.001952	-0.011355	0.010953	-0.034628	0.057983	0.017276
0.007109	-0.011562	0.008141	-0.022694	0.050707	0.039319
0.001235	-0.013671	0.007391	-0.023687	0.036561	0.057077
-0.00019	-0.009984	0.010239	-0.03181	0.025807	0.054535
0.000586	-0.008598	0.007334	-0.024662	0.020635	0.055591
-0.007279	-0.001947	0.008697	-0.018024	0.021999	0.079245
-0.010814	-0.000514	0.009467	-0.017881	0.003641	0.062039
-0.01362	0.000162	0.013925	-0.023768	-0.005051	0.063364
-0.011183	0.004286	0.011148	-0.019667	-0.007089	0.072754
-0.008061	0.003246	0.004089	-0.006477	0.001824	0.095378
-0.004233	0.00447	0.001334	0.00351	0.022145	0.106516
-0.000425	0.007229	0.0029	0.014832	0.040027	0.110123
-0.002517	0.004222	0.001589	0.001584	0.051946	0.129584
-0.000812	0.009846	0.003153	-0.011104	0.048935	0.133133
-0.004279	0.010446	0.007678	-0.027969	0.02621	0.139264
-0.007642	0.010874	0.001345	-0.043129	-0.002262	0.142725
-0.006656	0.014144	0.00448	-0.064248	-0.023829	0.156734
-0.004977	0.010762	-0.00028	-0.074179	-0.014592	0.188337
-0.003346	0.00746	-0.001437	-0.065272	0.023726	0.206057
-0.007439	0.00786	-0.007034	-0.050111	0.058549	0.21404
-0.004277	0.008915	-0.002378	-0.041297	0.068262	0.197852
-0.003361	0.004874	0.003079	-0.043555	0.050044	0.167025
-0.005355	-0.000574	0.007085	-0.047807	0.011241	0.128109
-0.004956	-0.001018	0.00456	-0.054637	-0.044243	0.084134
-0.006846	-0.003495	0.009282	-0.061823	-0.084826	0.064362
-0.008654	-0.003843	0.006706	-0.065819	-0.079303	0.057077
-0.003908	-0.007142	0.001295	-0.062185	-0.046018	0.055364
-0.00344	-0.003738	-0.003528	-0.051968	0.004639	0.071239
-0.003925	-0.008216	-0.003968	-0.058956	0.045524	0.084883
-0.000579	-0.002507	-0.004502	-0.072857	0.056095	0.086743
-0.001637	0.001052	-0.009422	-0.079933	0.048588	0.080923
0.002968	-0.002034	-0.007673	-0.083481	0.02382	0.070027
-0.001185	-0.00429	-0.00381	-0.093074	0.003079	0.052674
0.005575	-0.006762	0.001602	-0.097536	-0.019382	0.018813
0.004312	-0.012112	-0.003937	-0.105095	-0.041847	-0.005141
0.002392	-0.011531	-0.009595	-0.109633	-0.051513	0.007333
0.001017	-0.012964	-0.002932	-0.110867	-0.02963	0.02063
-0.003069	-0.002596	0.000621	-0.109356	0.009806	0.016795
-0.003567	0.006264	0.002732	-0.093205	0.035504	0.026943
-0.00115	0.012849	-0.000926	-0.078099	0.05369	0.043025
0.001848	0.013548	0.002789	-0.073518	0.057232	0.037074
0.00039	0.009824	0.002891	-0.067335	0.045103	0.041171
0.003414	0.010243	0.000121	-0.079328	0.016702	0.026833
0.003392	0.00412	-0.004796	-0.093302	-0.018533	0.013197
0.013555	8.9e-05	-0.000933	-0.10888	-0.059877	0.011753
0.009197	0.000674	-0.003837	-0.109448	-0.071318	0.022365
0.009172	0.003483	0.000503	-0.102261	-0.042823	0.022363
0.006307	0.008526	-0.000303	-0.092908	-0.012301	0.020521
0.007679	0.006897	0.000461	-0.09684	0.020735	0.0086
0.00695	0.011192	0.002578	-0.098181	0.043766	-0.013533
0.005438	0.011843	0.001081	-0.100085	0.039506	-0.038868
0.007496	0.009498	0.001832	-0.097452	0.013838	-0.056373
0.011806	0.011515	0.001072	-0.080929	-0.007748	-0.05196
0.011016	0.015047	-0.001216	-0.063393	-0.014734	-0.042949
0.01152	0.012035	-0.00273	-0.052011	0.008461	-0.032683
0.01051	0.009829	0.001529	-0.041893	0.054761	-0.0357
0.008063	0.008303	0.001404	-0.04786	0.089793	-0.03816
-0.000144	0.010481	0.001207	-0.049845	0.082331	-0.049085
0.004719	0.00588	-0.001695	-0.062114	0.042807	-0.061778
-0.001253	0.009573	0.003219	-0.072686	0.013111	-0.072095
-0.002989	0.001501	-0.001161	-0.08152	-0.017195	-0.077716
-0.009599	0.006662	-0.005008	-0.075805	-0.014304	-0.076526
-0.004622	0.006546	-0.0087	-0.067939	-0.005129	-0.064376
-0.006278	0.005149	-0.008089	-0.05359	0.005747	-0.059229
-0.008671	0.003018	-0.006736	-0.033508	0.020289	-0.05364
-0.010381	0.000166	-0.001736	-0.016746	0.028042	-0.059213
-0.012687	0.001675	-0.00187	-0.001887	0.033481	-0.047584
-0.01424	0.001684	-0.004869	0.008136	0.020511	-0.044967
-0.013639	0.003256	0.003763	0.01328	-0.002837	-0.04998
-0.008583	0.006105	0.005897	0.014661	-0.016765	-0.058308
-0.011515	0.008365	0.005074	0.016155	-0.013091	-0.056123
-0.007276	0.001692	-0.002869	0.016948	-0.010066	-0.064541
-0.003674	0.0031	-0.002904	0.021932	-0.011246	-0.071941
-0.005923	0.003922	-0.001533	0.024278	-0.014361	-0.066965
-0.011168	-0.000262	-0.000868	0.040671	-0.001502	-0.073059
-0.01261	0.002709	-0.000214	0.040366	-0.003335	-0.079188
-0.014091	0.004232	0.003373	0.025566	-0.016997	-0.086709
-0.011827	0.007052	0.001197	0.011687	-0.027016	-0.076482
-0.011068	0.008436	0.00194	-0.001333	-0.040013	-0.074687
-0.006779	0.004762	0.004917	0.007385	-0.039878	-0.069453
0.000501	0.003201	0.000607	0.006285	-0.026715	-0.075479
0.007016	0.000283	-0.004458	0.018638	0.003892	-0.070185
0.006257	0.003489	0.001221	0.017421	0.018156	-0.075676
0.009105	0.00295	0.004072	-0.015248	0.005947	-0.077795
0.009935	0.008875	0.001784	-0.039199	0.009818	-0.065572
0.008324	0.00619	0.014849	-0.062829	0.021094	-0.051716
0.007667	0.00834	0.010464	-0.070935	0.043857	-0.058199
0.004005	0.009896	0.016234	-0.076593	0.04827	-0.058847
0.008352	0.006211	0.01413	-0.077017	0.03742	-0.058505
0.010624	0.009899	0.011901	-0.065668	0.040342	-0.058291
0.015683	0.007044	0.006081	-0.063373	0.046744	-0.06519
0.014251	0.012399	0.002973	-0.056853	0.047932	-0.077891
0.017921	0.017617	-7.9e-05	-0.052595	0.051354	-0.074026
0.017086	0.01933	0.007789	-0.058805	0.051946	-0.079746
0.018549	0.02157	0.008462	-0.077494	0.052867	-0.074996
0.013426	0.02247	0.017148	-0.089244	0.046732	-0.078062
0.011983	0.018746	0.016528	-0.090272	0.043013	-0.068154
0.009957	0.019321	0.010071	-0.087677	0.05167	-0.079979
0.009777	0.007694	0.016065	-0.070166	0.070727	-0.07047
0.010689	0.012742	0.009501	-0.04991	0.077383	-0.069642
0.009196	0.009918	0.010244	-0.048555	0.067985	-0.083809
0.000545	0.012322	0.008701	-0.047941	0.042055	-0.084396
-0.002375	0.005839	0.007353	-0.063837	0.009221	-0.08369
-0.006605	0.004379	0.006005	-0.074407	-0.004303	-0.080673
-0.003351	0.009275	0.002525	-0.077627	-0.002112	-0.069447
-0.007614	0.001904	-0.00381	-0.074391	-0.005534	-0.067919
-0.002323	0.001077	-0.005819	-0.053723	-0.005924	-0.076459
-0.006637	-0.001657	0.000807	-0.024397	-0.000267	-0.064726
-0.004231	0.000496	-0.000545	-0.007616	0.003779	-0.078982
-0.011281	0.003517	0.001688	-0.005544	-0.003162	-0.089666
-0.006063	-0.001052	0.004135	-0.003737	-0.010104	-0.093626
-0.007927	0.003908	0.005732	0.004591	-0.023585	-0.100864
-0.00703	-0.002161	0.000927	-0.005546	-0.029717	-0.102561
-0.01179	0.002929	0.002489	-0.0099	-0.020481	-0.108499
-0.010092	-9.9e-05	-0.00164	-0.015253	-0.006113	-0.106646
0.003891	-0.004701	-0.004267	-0.004659	0.012651	-0.106505
0.004746	-0.008337	-0.015811	0.019473	0.012693	-0.103247
0.001255	-0.000807	-0.008641	0.037805	-0.002376	-0.108857
-0.004596	-0.007226	-0.011491	0.058926	-0.018017	-0.116091
-0.01255	-0.008591	-0.00781	0.062992	-0.024786	-0.115525
-0.010989	-0.008755	-0.002564	0.06553	-0.028544	-0.116261
-0.019608	-0.007977	0.006243	0.052658	-0.035129	-0.115044
-0.01204	-0.006177	0.002124	0.041343	-0.017797	-0.117479
-0.012691	-0.008497	0.002263	0.030684	-0.000484	-0.117782
0.001197	-0.010978	0.000275	0.036049	0.013954	-0.121087
0.009881	-0.014731	-0.004747	0.049342	0.000196	-0.126628
0.001726	-0.013633	0.000134	0.069204	-0.013416	-0.137583
0.00117	-0.001128	-0.002268	0.08009	-0.045033	-0.143394
-0.001782	0.003409	0.005601	0.098582	-0.061108	-0.153412
-0.006228	0.001962	0.007765	0.102417	-0.060662	-0.155288
-0.004884	-0.003291	0.012248	0.096811	-0.053112	-0.155476
-0.006268	-0.001985	0.008645	0.079765	-0.045278	-0.14087
0.00168	-0.007389	0.002975	0.05117	-0.037417	-0.131315
0.001539	-0.011023	0.001499	0.03923	-0.026648	-0.11891
0.005114	-0.009567	-0.006619	0.04415	-0.008625	-0.111613
0.008677	-0.004288	-0.009027	0.055888	-0.005887	-0.115369
0.00489	0.001864	-0.002774	0.079504	-0.011852	-0.129227
-0.000391	0.004295	-0.001568	0.089601	-0.022751	-0.128534
-0.000609	0.004341	0.00047	0.089614	-0.042401	-0.131501
-0.002959	0.006549	0.00469	0.083991	-0.074634	-0.137519
0.002674	0.006458	0.008264	0.074503	-0.080067	-0.1322
0.009671	0.000493	0.006071	0.061648	-0.063761	-0.137383
0.017432	0.00042	0.003752	0.062415	-0.032288	-0.133083
0.016411	0.002761	0.001997	0.080157	-0.019716	-0.138963
0.014571	0.006705	0.010347	0.093964	-0.012729	-0.136395
0.011419	0.01419	0.008491	0.087217	-0.020067	-0.129315
0.005875	0.011491	0.009648	0.077897	-0.039609	-0.137488
-0.001775	0.011015	0.014449	0.062403	-0.048155	-0.13072
-0.000544	0.011744	0.009162	0.052344	-0.040097	-0.134432
-0.004291	0.01924	0.01544	0.051335	-0.036356	-0.121772
-0.007393	0.016393	0.014621	0.055283	-0.023164	-0.132657
-0.001725	0.012669	0.01537	0.068304	-0.021328	-0.132795
0.001982	0.016164	0.008797	0.069391	-0.021436	-0.124933
0.001803	0.010384	0.01392	0.062659	-0.01846	-0.126887
-0.002481	0.014786	0.010929	0.073362	-0.025415	-0.131317
-0.004052	0.006059	0.00958	0.076633	-0.048812	-0.133781
-0.002447	0.008145	0.00454	0.075391	-0.064677	-0.1342
-0.004636	0.001625	0.001742	0.06228	-0.070175	-0.12871
-0.008904	-0.001963	-0.004721	0.038244	-0.061015	-0.125525
-0.009507	-0.001921	0.001935	0.02677	-0.043041	-0.132564
-0.010787	-0.001988	-0.003786	0.037507	-0.021994	-0.129175
-0.01434	-0.005635	-0.004383	0.057122	-0.005256	-0.133804
-0.009123	-0.009376	-0.010766	0.065872	0.025389	-0.143358
-0.008882	-0.002039	-0.010788	0.05077	0.035865	-0.134621
-0.008812	-0.003359	-0.011481	0.025931	0.026191	-0.120788
-0.005854	-0.001809	-0.010041	0.013156	-0.018169	-0.132358
-0.003743	-0.005382	-0.006364	0.017021	-0.053407	-0.122512
0.002895	-0.00182	-0.00635	0.016157	-0.057226	-0.10546
0.00212	-0.00096	0.003075	0.023454	-0.053775	-0.09982
0.002764	-0.00236	0.009625	0.039239	-0.037878	-0.090959
0.004225	-0.000881	0.01325	0.04873	-0.027873	-0.096551
0.001263	-0.00218	0.013928	0.049201	-0.02729	-0.0964
0.008695	0.005781	0.007291	0.044285	-0.032461	-0.091737
0.009237	0.001557	0.007224	0.018528	-0.048635	-0.103108
0.005607	0.00537	-0.001695	-0.003552	-0.080661	-0.096028
0.005539	0.007761	-0.000389	-0.042563	-0.099422	-0.090955
0.003159	0.004328	0.006083	-0.05815	-0.091799	-0.072361
0.003866	0.005055	0.006055	-0.063298	-0.061656	-0.069677
-0.000561	0.002854	0.007524	-0.05009	-0.03209	-0.052837
-0.004211	0.002832	0.011176	-0.021236	-0.00898	-0.0609
-0.00207	0.000496	0.013443	-0.005552	-0.00159	-0.052138
0.003033	0.000345	0.010577	-0.010999	0.00227	-0.055819
0.002242	-0.00031	0.006136	-0.037071	0.00399	-0.059834
0.007905	-0.006102	-0.00335	-0.066063	0.012931	-0.072483
0.004904	-0.004302	-0.004286	-0.097351	0.011106	-0.064596
0.001959	0.000388	-0.00378	-0.106759	0.005126	-0.046401
0.003982	-0.005341	-0.001583	-0.09104	0.009269	-0.057066
0.001272	0.004873	0.000503	-0.073261	0.003499	-0.051538
-0.001001	-0.001058	0.001335	-0.052529	-0.000589	-0.036384
-0.003137	0.002528	0.004224	-0.044143	0.008391	-0.035966
-0.006871	0.001895	0.012193	-0.043962	0.017445	-0.042279
-0.007607	0.002558	0.006334	-0.05333	0.021586	-0.032119
-0.010554	0.007016	0.005446	-0.069891	0.028683	-0.040346
-0.007802	0.004237	0.004639	-0.077623	0.026489	-0.040363
-0.005655	0.005821	-0.003505	-0.080471	0.018466	-0.046047
-0.003558	0.006716	3.4e-05	-0.07731	0.001778	-0.044372
-0.008007	0.002478	3e-05	-0.064965	0.004086	-0.046323
-0.005741	0.003117	0.006688	-0.061167	-0.002238	-0.042734
-0.006398	-5e-06	0.011256	-0.053297	0.002299	-0.039892
-0.006921	0.004131	0.016486	-0.068887	0.001652	-0.039973
-0.00465	-0.001182	0.013071	-0.08402	-0.012077	-0.039548
0.004932	-0.002075	0.013969	-0.095915	-0.006801	-0.032962
0.00225	0.006098	0.005833	-0.102733	0.006519	-0.033962
0.002954	0.002032	0.002165	-0.10482	0.014923	-0.026707
0.007564	0.012471	-0.003094	-0.104967	0.019872	-0.015646
0.007599	0.011268	-0.007506	-0.096128	0.029267	-0.022282
0.010612	0.0091	-0.018368	-0.095939	0.037419	-0.014982
0.005482	0.007816	-0.008905	-0.095871	0.034671	-0.019338
0.004077	0.004075	-0.010225	-0.111396	0.023767	-0.024025
0.000391	-0.001061	-0.002816	-0.11407	0.014924	-0.028506
-0.003247	-0.003358	0.000189	-0.11107	0.008109	-0.033748
0.000295	-0.011607	-0.00181	-0.110643	0.001285	-0.03135
-0.000467	-0.011634	0.00037	-0.117188	0.005556	-0.01952
0.001646	-0.011641	0.00033	-0.130885	0.016623	-0.015929
0.005899	-0.013858	-0.004069	-0.146379	0.04049	-0.003138
0.00363	-0.007814	0.000794	-0.151569	0.071048	0.000588
0.007881	-0.004074	0.0072	-0.145556	0.080498	0.014592
0.001869	-0.00162	0.016446	-0.13936	0.071404	0.012766
0.003951	0.000516	0.017079	-0.127293	0.057491	-0.001011
0.000895	-0.000148	0.017706	-0.126937	0.023721	-0.020183
0.00231	0.002719	0.013969	-0.120667	-0.001151	-0.020822
0.003759	0.004187	0.007344	-0.134589	-0.004598	-0.024463
0.004388	0.003671	0.006499	-0.141354	0.010019	-0.011858
-4e-06	0.004656	0.000522	-0.147219	0.04111	0.002486
0.002243	0.009877	-0.001781	-0.144818	0.096134	0.009999
0.002973	0.011384	-0.004022	-0.14736	0.135115	0.004511
-0.003602	0.012204	-0.005561	-0.137374	0.141417	0.009493
-0.00365	0.012165	-0.004849	-0.115833	0.113702	-0.001646
0.002011	0.005474	-0.004022	-0.106076	0.071181	0.000759
0.004887	0.007555	-0.00113	-0.108915	0.041114	-0.012225
-0.001075	0.00329	0.000297	-0.115984	0.024822	-0.015681
0.003269	0.006839	0.006823	-0.128585	0.027084	-0.008018
0.001812	0.009722	0.004566	-0.126106	0.043694	0.002394
0.000966	0.006103	0.006758	-0.106816	0.067878	0.001376
-0.00333	0.011967	0.004456	-0.09276	0.090635	-0.013324
0.000907	0.007539	0.008156	-0.084447	0.122724	-0.009291
0.000909	0.009722	0.008107	-0.076263	0.125816	-0.008248
-0.003564	0.006227	0.012458	-0.090581	0.114343	-0.009289
-0.004219	0.006893	0.00592	-0.09921	0.097778	-0.003001
-0.003373	0.009765	0.001555	-0.112562	0.092133	-0.002173
-0.007767	0.006984	0.005214	-0.118596	0.092609	0.008486
-0.002607	0.003234	0.00026	-0.113183	0.08392	0.013811
-0.008964	0.007751	-0.003428	-0.101907	0.06696	0.003984
-7.8e-05	0.006852	-0.006901	-0.093979	0.058179	-0.002819
0.002296	0.009747	-0.006097	-0.082574	0.048963	-0.013096
0.002307	0.004711	-0.001601	-0.073094	0.056684	-0.027592
0.00384	0.002482	-0.002947	-0.062347	0.072403	-0.037137
0.005435	0.003857	-0.006519	-0.060598	0.104719	-0.018482
0.007645	0.003853	-0.001372	-0.068105	0.125031	0.016303
0.000305	0.001075	0.002989	-0.081057	0.133676	0.048743
0.005364	-0.002661	0.005283	-0.092809	0.121784	0.063844
-0.002641	-0.000284	0.012479	-0.101675	0.083108	0.083234
-0.004789	-0.001035	0.00813	-0.099139	0.029592	0.084859
-0.004049	-0.003177	0.003053	-0.095109	-0.037371	0.083782
0.001055	-0.002409	0.00304	-0.086436	-0.077392	0.085396
0.003389	0.00496	-0.000707	-0.080096	-0.08974	0.097573
0.004194	0.010948	-0.003033	-0.075821	-0.074224	0.085177
0.01577	0.008676	-0.005175	-0.079634	-0.058396	0.08747
0.012687	0.005969	0.000563	-0.084586	-0.040514	0.089076
0.00533	0.006831	0.002634	-0.098754	-0.03004	0.099331
0.0022	-0.000445	0.004843	-0.098307	-0.0364	0.113022
-0.000889	-0.004767	0.010659	-0.086758	-0.035221	0.096094
-0.002276	-0.000448	0.00769	-0.073177	-0.041587	0.077348
0.000526	-0.004122	0.00918	-0.063772	-0.057397	0.067998
0.001249	-0.000467	0.007626	-0.069108	-0.066572	0.055227
0.00106	-0.005454	0.009778	-0.078878	-0.065938	0.05505
0.002428	-0.00689	0.00609	-0.083588	-0.040995	0.064065
-0.001357	-0.01035	0.006012	-0.079973	-0.027705	0.07482
-0.00204	-0.004493	0.002239	-0.055665	-0.008998	0.061004
0.003688	-0.005264	0.004412	-0.04456	-0.000658	0.060965
-0.000785	-0.005882	0.005048	-0.048351	-0.004798	0.03446
0.003585	-0.003823	0.000654	-0.064866	-0.014228	0.066932
0.005565	-0.005932	0.012261	-0.059944	-0.019956	0.058309
0.001188	-0.000716	0.013557	-0.053165	-0.010812	0.07781
0.005475	-0.003759	0.004834	-0.042191	0.000163	0.067172
0.003225	-0.000697	0.009066	-0.044866	-0.002186	0.061605
0.002384	-0.00131	0.011165	-0.036845	-0.011866	0.065881
0.00468	0.009653	0.009519	-0.032471	-0.024502	0.07231
0.005157	0.003178	0.009478	-0.021771	-0.029995	0.069535
0.007307	0.006819	0.006448	-0.025523	-0.03774	0.077426
-0.000745	0.011333	0.007721	-0.025557	-0.049101	0.094887
-0.003816	0.00625	0.007721	-0.013604	-0.05963	0.111806
-0.003051	0.00977	0.009165	-0.013618	-0.058932	0.132418
-0.000855	0.009456	0.001955	-0.00481	-0.045655	0.146414
-0.000194	0.006342	0.00204	0.002125	-0.037358	0.152219
0.001176	0.001801	0.002138	0.010947	-0.045703	0.148524
-0.001748	0.001003	0.002162	0.026041	-0.062012	0.125955
0.001901	-0.002866	-0.001331	0.027082	-0.092598	0.099803
-0.006019	0.000871	0.005918	0.016799	-0.110471	0.067766
-0.003788	-0.000731	0.010424	0.012203	-0.105859	0.06202
-0.003024	-0.00523	0.01059	0.00313	-0.087698	0.050454
-0.00495	0.003485	0.011298	-0.001546	-0.051794	0.056813
-0.004039	0.005575	0.004081	0.009844	-0.016011	0.058538
-0.00179	0.00258	-0.001634	0.013271	0.015032	0.061141
-0.004593	0.001132	-0.009589	0.019042	0.031869	0.066377
0.002036	0.000297	-0.010206	0.02271	0.009816	0.052993
0.002059	0.000313	-0.008732	0.018858	-0.013911	0.028621
-0.007268	0.003253	-0.011663	0.014989	-0.039838	0.007837
-0.004358	0.003104	-0.001364	0.007569	-0.055991	0.001128
-0.0058	0.002191	0.004571	-0.006482	-0.056296	0.009594
-0.003536	0.001869	0.009851	-0.009215	-0.028499	0.020623
-0.007845	-0.002019	0.008575	0.00459	0.01109	0.029637
-0.00696	-0.001516	0.009466	0.008073	0.058421	0.043688
-0.000199	0.000422	0.00745	0.021038	0.082643	0.044692
-0.001505	0.00266	0.005285	0.022337	0.083772	0.042987
-0.002077	0.004188	0.002404	0.019978	0.062623	0.03648
0.000335	0.008491	-0.005569	0.007129	0.028209	0.033395
0.001843	0.008495	-0.003337	-0.00309	0.001978	0.02776
0.00119	0.007722	0.000402	-0.012386	-0.010757	0.025829
0.002821	0.009682	-0.000192	-0.01052	7.9e-05	0.019944
0.001419	0.004337	3.2e-05	-0.001575	0.027122	0.026908
0.003023	0.000366	-0.005538	-0.005957	0.050435	0.026843
0.009025	0.002955	-0.005375	-0.017759	0.061797	0.020144
0.007602	0.001335	-0.004542	-0.02413	0.063308	0.010906
0.0098	0.00266	0.003531	-0.028606	0.041081	-0.011734
0.000366	0.003455	0.004956	-0.033012	0.018753	-0.019732
0.001899	0.003315	0.004321	-0.04828	-0.012792	-0.014441
0.0042	0.007504	0.003628	-0.035038	0.00523	-0.023393
0.004193	0.006694	0.004396	-0.035624	0.024742	-0.03507
0.004166	0.006658	0.005121	-0.043236	0.037667	-0.029482
0.001911	-2.3e-05	-0.003527	-0.045243	0.036586	-0.016328
0.000502	0.004283	8e-05	-0.048115	0.043209	0.000649
0.001885	0.002759	0.004479	-0.048119	0.053712	-0.004561
-0.002525	-0.000918	0.003072	-0.051774	0.068367	-0.001122
-0.003233	-0.001749	0.002399	-0.041855	0.075308	-0.002227
-0.00165	0.001773	-0.000487	-0.041415	0.061374	-0.012073
-0.003862	-0.001157	-0.001904	-0.057753	0.023819	-0.034647
-0.00454	-0.000507	-0.004793	-0.083352	-0.020036	-0.03679
-0.004674	-0.007063	-0.004	-0.092565	-0.032206	-0.040581
-0.006059	-0.000433	0.000263	-0.082988	0.001291	-0.023611
-0.012639	-0.001736	-0.001979	-0.062042	0.031247	-0.014138
-0.003784	0.00474	0.003118	-0.042717	0.057917	-0.006968
